#Wave		#Intensity
1.300042	72.884796
1.300095	39.245659
1.300147	56.055878
1.300200	28.023264
1.300252	39.226025
1.300304	44.822266
1.300357	16.805548
1.300409	28.004574
1.300462	55.999809
1.300514	44.792377
1.300567	50.383022
1.300619	16.791540
1.300672	33.577484
1.300724	50.357826
1.300777	61.538197
1.300829	55.934490
1.300882	78.295235
1.300935	55.915844
1.300987	55.906525
1.301040	27.948605
1.301092	39.121525
1.301145	33.527149
1.301197	44.695415
1.301250	55.859959
1.301303	39.095455
1.301355	55.841347
1.301408	44.665634
1.301461	55.822742
1.301513	44.650757
1.301566	50.223732
1.301618	39.056396
1.301671	33.471336
1.301724	39.043388
1.301777	44.613583
1.301829	61.333462
1.301882	39.023884
1.301935	61.313038
1.301987	16.718952
1.302040	44.576450
1.302093	83.566933
1.302146	38.991409
1.302198	50.123466
1.302251	44.546776
1.302304	72.376457
1.302357	61.231426
1.302410	55.655666
1.302462	61.211044
1.302515	16.691143
1.302568	33.376732
1.302621	38.933037
1.302674	66.731247
1.302727	38.920082
1.302779	50.031780
1.302832	38.907131
1.302885	88.915794
1.302938	50.006813
1.302991	94.441605
1.303044	44.435715
1.303097	44.428322
1.303150	72.184013
1.303203	55.516930
1.303255	77.710777
1.303308	55.498466
1.303361	61.038158
1.303414	49.932007
1.303467	55.470783
1.303520	55.461559
1.303573	27.726170
1.303626	60.987431
1.303679	49.890514
1.303732	27.712343
1.303785	49.873928
1.303838	66.487518
1.303891	27.698526
1.303944	105.236908
1.303998	44.302914
1.304050	77.517212
1.304104	38.752163
1.304157	71.956345
1.304210	44.273472
1.304263	16.599792
1.304316	71.920486
1.304369	77.439957
1.304422	49.774559
1.304475	49.766293
1.304528	22.114677
1.304582	27.638754
1.304635	49.741493
1.304688	44.207317
1.304741	60.774967
1.304794	71.813034
1.304848	82.847427
1.304901	88.355911
1.304954	60.734604
1.305007	93.846985
1.305061	55.194942
1.305114	27.592890
1.305167	49.658955
1.305220	60.684200
1.305274	44.126637
1.305327	66.178970
1.305380	71.681984
1.305434	55.130833
1.305487	27.560841
1.305540	66.135040
1.305593	33.062031
1.305647	66.113091
1.305700	71.610626
1.305753	33.045574
1.305807	44.053455
1.305860	88.092293
1.305914	27.524273
1.305967	82.559120
1.306020	71.539368
1.306074	44.016922
1.306127	71.515633
1.306180	38.502029
1.306234	27.496889
1.306287	38.489258
1.306341	43.980431
1.306394	54.966419
1.306448	60.453033
1.306501	71.432648
1.306555	38.457355
1.306608	65.915962
1.306662	49.428772
1.306715	49.420578
1.306769	49.412384
1.306822	49.404190
1.306876	71.349777
1.306929	43.900280
1.306983	54.866253
1.307037	82.285736
1.307090	27.424032
1.307144	60.322872
1.307197	49.346897
1.307251	65.784958
1.307305	54.811714
1.307358	21.921051
1.307412	38.355484
1.307465	60.262917
1.307519	60.252930
1.307573	65.719582
1.307626	60.232967
1.307680	38.323719
1.307734	71.160835
1.307787	60.203037
1.307841	27.360485
1.307895	54.711906
1.307948	49.232559
1.308002	82.040672
1.308056	54.684727
1.308110	54.675671
1.308163	71.066597
1.308217	27.328781
1.308271	43.718811
1.308325	76.495247
1.308379	60.093456
1.308432	27.310686
1.308486	54.612328
1.308540	27.301643
1.308594	32.756550
1.308648	49.126690
1.308702	81.864265
1.308755	60.023857
1.308809	70.925545
1.308863	54.549084
1.308917	65.448067
1.308971	54.531029
1.309025	65.426407
1.309079	59.964279
1.309133	65.404755
1.309186	70.843430
1.309240	65.383110
1.309294	54.476913
1.309348	70.808273
1.309402	59.904778
1.309456	65.339859
1.309510	43.552700
1.309564	43.545494
1.309618	70.749725
1.309672	48.972477
1.309726	43.523891
1.309780	59.835457
1.309834	38.070812
1.309888	76.129028
1.309942	48.931999
1.309996	70.667870
1.310050	65.221092
1.310104	43.473537
1.310159	86.932701
1.310213	27.161978
1.310267	76.040970
1.310321	54.305996
1.310375	38.007915
1.310429	59.716850
1.310483	81.418610
1.310537	70.551132
1.310592	59.687244
1.310646	70.527817
1.310700	37.970238
1.310754	65.081085
1.310808	65.070328
1.310862	37.951420
1.310917	43.365887
1.310971	65.038078
1.311025	21.675777
1.311079	5.418049
1.311134	59.588696
1.311188	64.995110
1.311242	64.984375
1.311296	48.730232
1.311351	64.962914
1.311405	70.364861
1.311459	37.882515
1.311514	43.287151
1.311568	64.920006
1.311622	16.227322
1.311677	48.673923
1.311731	43.258568
1.311785	43.251423
1.311839	108.110710
1.311894	48.641785
1.311948	59.441257
1.312003	43.222870
1.312057	59.421635
1.312111	37.807526
1.312166	32.401100
1.312220	32.395752
1.312275	53.984009
1.312329	59.372608
1.312384	59.362812
1.312438	48.561558
1.312493	80.922569
1.312547	26.969740
1.312602	59.323635
1.312656	48.529510
1.312711	53.912781
1.312765	53.903889
1.312819	75.452995
1.312874	37.720272
1.312929	53.877213
1.312983	48.481495
1.313038	86.175102
1.313092	43.080444
1.313147	59.225842
1.313202	59.216072
1.313256	75.353485
1.313311	21.526016
1.313365	59.186779
1.313420	86.075668
1.313475	64.546104
1.313529	59.157505
1.313584	37.639477
1.313639	86.018906
1.313693	43.002361
1.313748	42.995274
1.313802	37.614662
1.313857	53.726372
1.313912	69.832771
1.313967	42.966930
1.314021	69.809753
1.314076	75.167343
1.314131	59.050320
1.314186	53.673260
1.314240	53.664417
1.314295	42.924458
1.314350	53.646729
1.314405	69.729256
1.314459	69.717766
1.314514	53.620216
1.314569	42.889103
1.314624	48.242294
1.314679	64.312462
1.314734	48.226398
1.314788	53.576061
1.314843	37.497063
1.314898	69.625931
1.314953	53.549587
1.315008	42.832615
1.315063	42.825562
1.315118	69.580070
1.315173	53.514320
1.315227	69.557159
1.315282	64.196037
1.315337	96.278191
1.315392	69.522804
1.315447	42.776218
1.315502	58.807613
1.315557	96.214798
1.315612	101.543343
1.315667	58.778576
1.315722	48.083645
1.315777	64.100975
1.315832	53.408684
1.315887	64.079872
1.315942	69.408432
1.315997	74.735237
1.316052	58.710880
1.316107	42.691795
1.316162	64.027153
1.316218	74.686058
1.316273	106.676804
1.316328	74.661476
1.316383	63.985020
1.316438	37.318455
1.316493	53.303307
1.316548	58.623989
1.316603	58.614346
1.316658	74.587807
1.316714	53.268238
1.316769	42.607582
1.316824	69.225929
1.316879	47.917759
1.316934	63.879837
1.316990	53.224442
1.317045	47.894119
1.317100	85.131104
1.317155	74.477463
1.317211	63.827328
1.317266	42.544556
1.317321	37.220364
1.317376	53.163204
1.317432	69.100800
1.317487	42.516579
1.317542	74.391785
1.317598	85.005203
1.317653	53.119518
1.317708	47.799706
1.317764	69.032669
1.317819	26.546663
1.317874	58.393059
1.317930	47.768288
1.317985	90.214157
1.318040	37.140900
1.318096	79.574562
1.318151	58.345089
1.318206	79.548409
1.318262	79.535339
1.318317	37.110394
1.318373	42.404907
1.318428	52.997425
1.318484	84.781952
1.318539	47.682011
1.318595	47.674179
1.318650	47.666348
1.318706	37.067734
1.318761	74.123291
1.318817	26.468256
1.318872	95.270065
1.318928	42.335297
1.318983	58.201473
1.319039	63.482090
1.319094	95.207497
1.319150	74.038116
1.319206	89.888657
1.319261	63.440399
1.319317	52.858318
1.319372	68.704529
1.319428	84.545540
1.319484	63.398743
1.319539	63.388332
1.319595	42.251949
1.319650	58.086895
1.319706	47.517838
1.319762	63.346718
1.319817	89.726456
1.319873	52.771603
1.319929	36.934059
1.319984	63.305138
1.320040	73.843872
1.320096	89.652840
1.320152	68.546806
1.320207	63.263592
1.320263	89.608711
1.320319	79.053535
1.320375	47.424339
1.320430	79.027596
1.320486	79.014626
1.320542	73.734886
1.320598	52.659134
1.320653	52.650497
1.320709	36.849300
1.320765	89.476479
1.320821	63.149506
1.320877	47.354362
1.320933	42.085861
1.320989	57.858566
1.321044	52.590073
1.321100	73.614021
1.321156	73.601952
1.321212	52.564201
1.321268	68.322250
1.321324	57.801659
1.321380	47.284512
1.321436	63.035675
1.321492	68.277451
1.321548	84.020012
1.321604	57.754284
1.321660	110.240105
1.321716	73.481354
1.321772	57.725883
1.321828	89.198105
1.321884	78.691307
1.321940	68.187958
1.321996	68.176781
1.322052	57.678589
1.322108	68.154434
1.322164	73.385048
1.322220	78.613953
1.322276	62.880856
1.322332	62.870552
1.322388	62.860249
1.322444	73.324944
1.322500	78.549561
1.322557	99.479813
1.322613	41.879372
1.322669	73.276894
1.322725	73.264885
1.322781	62.788189
1.322837	57.546410
1.322893	83.690155
1.322950	52.297779
1.323006	62.747055
1.323062	78.420975
1.323118	57.499294
1.323174	47.037170
1.323231	62.705956
1.323287	41.797123
1.323343	41.790279
1.323399	67.898079
1.323456	62.664886
1.323512	73.097061
1.323568	88.746185
1.323625	78.292633
1.323681	67.842506
1.323737	52.178001
1.323794	104.338913
1.323850	62.593098
1.323906	83.443802
1.323963	57.358223
1.324019	83.416481
1.324075	62.552120
1.324132	57.330059
1.324188	62.531647
1.324244	62.521412
1.324301	57.301914
1.324357	78.126183
1.324414	88.528519
1.324470	72.893906
1.324527	36.440987
1.324583	78.075050
1.324640	57.245670
1.324696	72.846199
1.324752	36.417141
1.324809	109.233551
1.324865	83.211945
1.324922	67.598640
1.324979	77.985672
1.325035	72.774719
1.325092	46.776096
1.325148	36.375454
1.325205	77.934654
1.325261	62.337524
1.325318	51.939442
1.325374	98.668793
1.325431	103.844902
1.325487	62.296749
1.325544	72.667656
1.325601	67.466072
1.325657	72.643890
1.325714	67.444008
1.325771	82.994438
1.325827	88.167168
1.325884	98.523666
1.325941	88.138336
1.325997	88.123932
1.326054	119.207001
1.326111	57.002720
1.326168	56.993401
1.326224	72.525200
1.326281	67.333817
1.326338	108.752235
1.326395	82.845299
1.326451	62.123817
1.326508	87.994354
1.326565	72.454094
1.326622	62.093361
1.326678	56.909611
1.326735	77.591331
1.326792	82.750565
1.326849	62.052780
1.326906	62.042641
1.326963	77.540627
1.327019	67.190895
1.327076	87.850662
1.327133	77.502625
1.327190	61.991966
1.327247	82.642448
1.327304	82.628952
1.327361	82.615448
1.327418	72.276711
1.327475	46.456009
1.327531	67.092163
1.327588	98.041756
1.327645	92.866493
1.327702	25.792034
1.327759	61.890774
1.327816	92.820999
1.327873	67.026436
1.327930	77.325569
1.327987	67.004547
1.328044	56.686897
1.328101	61.830151
1.328158	87.578415
1.328215	123.619919
1.328272	72.099846
1.328330	56.640629
1.328387	77.224609
1.328444	108.096802
1.328501	87.492645
1.328558	51.457863
1.328615	56.594406
1.328672	82.305702
1.328729	77.148994
1.328786	87.421257
1.328844	82.265396
1.328901	51.407482
1.328958	71.958725
1.329015	87.364197
1.329072	77.073471
1.329129	97.610466
1.329187	56.502098
1.329244	102.714325
1.329301	87.292931
1.329358	41.072323
1.329416	92.397644
1.329473	92.382568
1.329530	76.972908
1.329587	61.568279
1.329645	92.337357
1.329702	97.451302
1.329759	92.307228
1.329816	82.037483
1.329874	76.897591
1.329931	71.759377
1.329989	87.122177
1.330046	81.983963
1.330103	61.477943
1.330161	76.834892
1.330218	76.822365
1.330275	107.533768
1.330333	51.198204
1.330390	61.427826
1.330448	97.244858
1.330505	61.407791
1.330562	71.630737
1.330620	61.387764
1.330677	56.262939
1.330735	76.709679
1.330792	56.244595
1.330850	46.010799
1.330907	71.560684
1.330965	91.991600
1.331022	102.196220
1.331080	81.743652
1.331137	66.405884
1.331195	81.717003
1.331252	56.171280
1.331310	66.373421
1.331367	86.781860
1.331425	96.975677
1.331483	71.444115
1.331540	40.818558
1.331598	86.725296
1.331656	81.610504
1.331713	76.497375
1.331771	40.791954
1.331828	91.766937
1.331886	112.141312
1.331944	81.544029
1.332001	96.817757
1.332059	96.801979
1.332117	66.222137
1.332174	66.211349
1.332232	76.385269
1.332290	66.189781
1.332347	96.723145
1.332405	101.797249
1.332463	76.335503
1.332521	96.675880
1.332578	81.398010
1.332636	81.384750
1.332694	55.942902
1.332752	66.103569
1.332810	101.681236
1.332867	76.248505
1.332925	91.483299
1.332983	76.223671
1.333041	71.130508
1.333099	86.358688
1.333157	96.502815
1.333214	76.174026
1.333272	71.084183
1.333330	76.149223
1.333388	71.061035
1.333446	96.424278
1.333504	71.037895
1.333562	111.612808
1.333620	60.869801
1.333678	71.003204
1.333736	76.062477
1.333794	50.700066
1.333851	106.452805
1.333910	106.435471
1.333967	76.012962
1.334026	96.267418
1.334083	65.856461
1.334141	81.040909
1.334200	106.348877
1.334258	111.394981
1.334316	81.001343
1.334374	80.988159
1.334432	70.853111
1.334490	91.082031
1.334548	80.948631
1.334606	80.935455
1.334664	85.979927
1.334722	106.193222
1.334780	121.343933
1.334838	65.717270
1.334896	90.978333
1.334955	80.856476
1.335013	65.685196
1.335071	90.933937
1.335129	70.714890
1.335187	60.602901
1.335246	100.988411
1.335304	111.069176
1.335362	90.860001
1.335420	70.657394
1.335478	70.645897
1.335537	65.589096
1.335595	60.533932
1.335653	70.611435
1.335711	70.599953
1.335770	55.462368
1.335828	75.618202
1.335886	70.565514
1.335945	95.751907
1.336003	95.736336
1.336061	70.531090
1.336120	100.742325
1.336178	130.943726
1.336236	55.390259
1.336295	95.658531
1.336353	60.406090
1.336411	95.627426
1.336470	60.386452
1.336528	80.502174
1.336587	55.336250
1.336645	90.535507
1.336703	80.462921
1.336762	80.449844
1.336820	80.436768
1.336879	75.397209
1.336937	80.410622
1.336996	90.447243
1.337054	120.576729
1.337113	70.324989
1.337171	80.358360
1.337230	75.323715
1.337288	95.394539
1.337347	70.279289
1.337405	105.401802
1.337464	100.366356
1.337523	90.315041
1.337581	70.233620
1.337640	100.317436
1.337698	115.346313
1.337757	70.199394
1.337816	110.295403
1.337874	95.239647
1.337933	80.188782
1.337991	65.142799
1.338050	95.193237
1.338109	90.168419
1.338167	75.128143
1.338226	65.100479
1.338285	90.124481
1.338343	90.109848
1.338402	75.079338
1.338461	80.071625
1.338520	80.058617
1.338578	95.054169
1.338637	105.042809
1.338696	85.020844
1.338755	65.005379
1.338813	89.992836
1.338872	79.980637
1.338931	79.967651
1.338990	99.943336
1.339049	99.927101
1.339107	84.924248
1.339166	89.905190
1.339225	99.878441
1.339284	84.882889
1.339343	84.869110
1.339402	99.829796
1.339460	89.832230
1.339519	104.787254
1.339578	89.803070
1.339637	94.776741
1.339696	84.786476
1.339755	94.745972
1.339814	104.702232
1.339873	99.700226
1.339932	139.557663
1.339991	74.750900
1.340050	104.634277
1.340109	84.690193
1.340168	89.657410
1.340227	94.623024
1.340286	104.566368
1.340345	79.656685
1.340404	104.532433
1.340463	89.584686
1.340522	104.498512
1.340581	49.753120
1.340640	89.541084
1.340699	89.526558
1.340758	104.430702
1.340817	69.609177
1.340876	84.511711
1.340936	94.438942
1.340995	104.362946
1.341054	104.346016
1.341113	69.552727
1.341172	79.475937
1.341231	89.395927
1.341290	129.106506
1.341350	89.366928
1.341409	89.352432
1.341468	79.411499
1.341527	69.473793
1.341586	114.117004
1.341646	99.216080
1.341705	104.159988
1.341764	69.428734
1.341823	89.251038
1.341883	94.194145
1.341942	128.876358
1.342001	69.383705
1.342061	89.193153
1.342120	104.041809
1.342179	123.839211
1.342239	89.149773
1.342298	108.943169
1.342357	108.925507
1.342417	113.858200
1.342476	89.091972
1.342535	89.077530
1.342595	94.011040
1.342654	98.942940
1.342714	59.356140
1.342773	74.183151
1.342832	74.171127
1.342892	113.710625
1.342951	79.090218
1.343011	113.673759
1.343070	59.298435
1.343130	113.636917
1.343189	103.738625
1.343249	113.600082
1.343308	79.013336
1.343368	88.875595
1.343427	93.797928
1.343487	98.718658
1.343546	78.962128
1.343606	103.621002
1.343665	93.737137
1.343725	93.721954
1.343785	113.434502
1.343844	93.691582
1.343904	78.885391
1.343963	98.590759
1.344023	103.503525
1.344082	103.486755
1.344142	128.105698
1.344202	103.453224
1.344262	78.808739
1.344321	103.419708
1.344381	113.250854
1.344441	64.000984
1.344500	98.447105
1.344560	83.666481
1.344620	39.366085
1.344679	108.239197
1.344739	103.302498
1.344799	78.693916
1.344859	113.104187
1.344918	118.002640
1.344978	108.151566
1.345038	73.727760
1.345098	88.458992
1.345158	98.271851
1.345217	98.255936
1.345277	98.240021
1.345337	63.845673
1.345397	83.476974
1.345457	98.192307
1.345517	103.085228
1.345576	98.160507
1.345636	122.680771
1.345696	98.128723
1.345756	122.641045
1.345816	107.906647
1.345876	127.505394
1.345936	93.161934
1.345996	112.756714
1.346056	88.230095
1.346116	63.711422
1.346176	88.201530
1.346236	127.381592
1.346296	112.665474
1.346356	93.056412
1.346416	102.835175
1.346476	107.714653
1.346536	97.906563
1.346596	102.785255
1.346656	102.768616
1.346716	117.430840
1.346776	107.627518
1.346836	117.392830
1.346896	92.920952
1.346956	92.905914
1.347016	88.001884
1.347076	107.540451
1.347136	112.410461
1.347197	97.732414
1.347257	83.059105
1.347317	117.240944
1.347377	131.874725
1.347437	97.669174
1.347497	112.301376
1.347558	117.165085
1.347618	92.740685
1.347678	82.965080
1.347738	97.590187
1.347798	126.846718
1.347859	117.070343
1.347919	126.805687
1.347979	121.908821
1.348039	141.391357
1.348100	102.370277
1.348160	97.479736
1.348220	121.829956
1.348281	112.065430
1.348341	102.304062
1.348401	102.287514
1.348462	92.530876
1.348522	97.385170
1.348582	87.632477
1.348643	107.089043
1.348703	97.337929
1.348763	116.786629
1.348824	92.441132
1.348884	87.561646
1.348945	126.457474
1.349005	106.985176
1.349066	97.243523
1.349126	111.811974
1.349186	131.236313
1.349247	155.514175
1.349307	136.052902
1.349368	106.881432
1.349428	116.579071
1.349489	106.846870
1.349549	121.397270
1.349610	111.667427
1.349670	106.795059
1.349731	106.777794
1.349792	97.055031
1.349852	111.595238
1.349913	130.981934
1.349973	82.456772
1.350034	111.541130
1.350094	121.220764
1.350155	111.505074
1.350216	140.570633
1.350276	96.929596
1.350337	87.222534
1.350397	111.433006
1.350458	116.259125
1.350519	145.300415
1.350580	92.008728
1.350640	150.095245
1.350701	150.070984
1.350762	140.366302
1.350822	96.788704
1.350883	82.257103
1.350944	135.460388
1.351005	116.090149
1.351065	72.544617
1.351126	72.532898
1.351187	130.538116
1.351248	101.513245
1.351308	111.163208
1.351369	106.312843
1.351430	111.127289
1.351491	101.447655
1.351552	135.241684
1.351613	96.585594
1.351673	101.398491
1.351734	135.176147
1.351795	115.846558
1.351856	111.001678
1.351917	120.634514
1.351978	96.492020
1.352039	130.243179
1.352100	139.868240
1.352161	130.201111
1.352222	106.072662
1.352283	110.876236
1.352344	110.858330
1.352404	77.106384
1.352465	106.004150
1.352526	158.980545
1.352587	125.237175
1.352648	134.849014
1.352710	115.566208
1.352771	110.733063
1.352832	110.715179
1.352893	101.071449
1.352954	144.364471
1.353015	81.793327
1.353076	105.833092
1.353137	125.055275
1.353198	100.989876
1.353259	125.014900
1.353320	149.032166
1.353381	115.361107
1.353443	110.536545
1.353504	105.713539
1.353565	120.109627
1.353626	105.679405
1.353687	139.282181
1.353748	124.853523
1.353810	100.826950
1.353871	120.012711
1.353932	124.793068
1.353993	139.169800
1.354055	129.550964
1.354116	110.340416
1.354177	163.085602
1.354238	119.896523
1.354300	81.516479
1.354361	115.063507
1.354422	148.599716
1.354483	110.233604
1.354545	153.343750
1.354606	110.198029
1.354668	110.180244
1.354729	57.476067
1.354790	138.878082
1.354851	134.067535
1.354913	129.258560
1.354974	129.237701
1.355036	138.788452
1.355097	138.766068
1.355159	143.527939
1.355220	110.020325
1.355281	162.612503
1.355343	133.894577
1.355404	90.842369
1.355466	138.631775
1.355527	124.270500
1.355589	100.356133
1.355650	133.786591
1.355712	119.433044
1.355773	162.402740
1.355835	128.946075
1.355896	105.050224
1.355958	128.904480
1.356019	138.430618
1.356081	85.908592
1.356143	157.473679
1.356204	128.821320
1.356266	152.652496
1.356327	138.319000
1.356389	143.065552
1.356451	95.361649
1.356512	123.950142
1.356574	152.529419
1.356636	81.018188
1.356697	119.125175
1.356759	114.341721
1.356821	114.323280
1.356882	138.118362
1.356944	147.619949
1.357006	128.551483
1.357068	104.728760
1.357129	142.788910
1.357191	80.900673
1.357253	128.468582
1.357315	123.690536
1.357376	114.157471
1.357438	142.673828
1.357500	133.140762
1.357562	114.102257
1.357624	95.069885
1.357685	152.087280
1.357747	128.302963
1.357809	147.287048
1.357871	128.261597
1.357933	109.242256
1.357995	94.977951
1.358057	123.451431
1.358118	123.431534
1.358180	118.665031
1.358242	170.850098
1.358304	142.352127
1.358366	137.584885
1.358428	137.562698
1.358490	156.511627
1.358552	170.712448
1.358614	109.048698
1.358676	137.474030
1.358738	137.451874
1.358800	94.779114
1.358862	118.454796
1.358924	118.435707
1.358986	142.099945
1.359048	142.077042
1.359110	132.583862
1.359172	137.296875
1.359234	99.405846
1.359296	137.252625
1.359358	123.034241
1.359420	151.402359
1.359483	156.108521
1.359545	132.434372
1.359607	127.683990
1.359669	118.206871
1.359731	122.915337
1.359793	127.622276
1.359856	113.423744
1.359918	113.405472
1.359980	137.009537
1.360042	141.711166
1.360104	141.688324
1.360167	151.109863
1.360229	122.756989
1.360291	155.781845
1.360353	113.277634
1.360416	94.382820
1.360478	146.269806
1.360540	103.787651
1.360602	117.921516
1.360665	146.199127
1.360727	141.460236
1.360789	160.295776
1.360852	141.414658
1.360914	150.818008
1.360976	146.081406
1.361039	150.769424
1.361101	131.901993
1.361163	131.880753
1.361226	127.150238
1.361288	127.129761
1.361351	164.771301
1.361413	183.572723
1.361476	131.774582
1.361538	89.404060
1.361601	150.551010
1.361663	150.526764
1.361725	136.392914
1.361788	136.370956
1.361850	173.962509
1.361913	141.027969
1.361975	178.606659
1.362038	131.583710
1.362101	108.069214
1.362163	164.426666
1.362226	164.400192
1.362288	154.980942
1.362351	126.782166
1.362413	145.541275
1.362476	159.600204
1.362539	136.107666
1.362601	131.393143
1.362664	131.371994
1.362727	159.497452
1.362789	136.020035
1.362852	173.514862
1.362914	117.220901
1.362977	140.642441
1.363040	140.619797
1.363102	98.418007
1.363165	145.260330
1.363228	173.347336
1.363291	103.054794
1.363353	112.405312
1.363416	168.580826
1.363479	187.281876
1.363542	154.482681
1.363604	117.013496
1.363667	135.713806
1.363730	131.012924
1.363793	168.418076
1.363856	163.713440
1.363919	154.333542
1.363981	163.660751
1.364044	144.933334
1.364107	182.306137
1.364170	135.539154
1.364233	149.536377
1.364296	112.134232
1.364359	186.860321
1.364421	144.793442
1.364484	140.100128
1.364547	182.100861
1.364610	163.397552
1.364673	191.377762
1.364736	186.679962
1.364799	153.986191
1.364862	125.968422
1.364925	125.948151
1.364988	177.231842
1.365051	153.887100
1.365114	172.512314
1.365177	153.837585
1.365240	181.778793
1.365303	107.185631
1.365366	153.763336
1.365430	158.397339
1.365493	177.003845
1.365556	144.374634
1.365619	158.320908
1.365682	158.295425
1.365745	134.994965
1.365808	144.281754
1.365871	120.991035
1.365934	181.457352
1.365998	144.212128
1.366061	139.537674
1.366124	134.864716
1.366187	158.091827
1.366250	162.715408
1.366314	176.634018
1.366377	134.777969
1.366440	171.930435
1.366503	171.902786
1.366567	125.422394
1.366630	130.046738
1.366693	176.463623
1.366756	148.577042
1.366820	153.195435
1.366883	129.963104
1.366946	148.505371
1.367010	180.961807
1.367073	162.375504
1.367136	199.457825
1.367200	166.961090
1.367263	134.474808
1.367326	129.816864
1.367390	166.880554
1.367453	152.949234
1.367517	139.022400
1.367580	152.900055
1.367644	148.242874
1.367707	166.746414
1.367770	134.301895
1.367834	185.214203
1.367897	189.814041
1.367961	194.412384
1.368024	157.356155
1.368088	166.585602
1.368151	143.425644
1.368215	194.287369
1.368278	161.880112
1.368342	166.478485
1.368405	138.709763
1.368469	134.064560
1.368533	157.153854
1.368596	157.128601
1.368660	194.068817
1.368723	143.218246
1.368787	138.576019
1.368851	217.067535
1.368914	143.149185
1.368978	175.444977
1.369042	166.184311
1.369105	143.080154
1.369169	179.975128
1.369233	133.806152
1.369296	147.624435
1.369360	152.213226
1.369424	193.694778
1.369487	175.219498
1.369551	152.139832
1.369615	170.553604
1.369679	165.917374
1.369742	170.498795
1.369806	129.005371
1.369870	156.624207
1.369934	138.175613
1.369998	142.758514
1.370061	193.383682
1.370125	188.748962
1.370189	156.498383
1.370253	211.699066
1.370317	147.245255
1.370381	188.627655
1.370444	147.197922
1.370508	179.368637
1.370572	133.355255
1.370636	170.115570
1.370700	220.654999
1.370764	202.234573
1.370828	165.438065
1.370892	147.032425
1.370956	174.572952
1.371020	192.918045
1.371084	211.257233
1.371148	188.264236
1.371212	169.869690
1.371276	201.974747
1.371340	151.456726
1.371404	156.021240
1.371468	174.348663
1.371532	174.320663
1.371596	215.572495
1.371660	206.366028
1.371724	192.577347
1.371788	187.961975
1.371853	142.094757
1.371917	174.152679
1.371981	192.453613
1.372045	169.515244
1.372109	229.037842
1.372173	151.140686
1.372237	160.274979
1.372301	164.827789
1.372366	173.956940
1.372430	242.585175
1.372494	178.477386
1.372558	173.873108
1.372623	187.569809
1.372687	201.262085
1.372751	201.229752
1.372815	182.906754
1.372880	160.017700
1.372944	187.419205
1.373008	205.670959
1.373073	187.359009
1.373137	201.035904
1.373201	169.025757
1.373266	223.808975
1.373330	200.939041
1.373394	219.171021
1.373459	191.743851
1.373523	141.502487
1.373587	200.809982
1.373652	196.214615
1.373716	136.871933
1.373780	223.521576
1.373845	186.998230
1.373909	145.926392
1.373974	209.735504
1.374038	168.673203
1.374103	195.994141
1.374167	168.619034
1.374232	191.374649
1.374296	214.122955
1.374361	209.533493
1.374425	191.282471
1.374490	168.483688
1.374554	191.221054
1.374619	163.877441
1.374683	191.159637
1.374748	154.723434
1.374812	204.748138
1.374877	195.616806
1.374942	181.939896
1.375006	218.292831
1.375071	195.522583
1.375136	213.676422
1.375200	186.368652
1.375265	199.973282
1.375329	181.764694
1.375394	204.452454
1.375459	199.876968
1.375524	181.677170
1.375588	172.565598
1.375653	249.725891
1.375718	208.828125
1.375782	181.560532
1.375847	245.067352
1.375912	186.039795
1.375977	163.325790
1.376042	181.443970
1.376106	149.667236
1.376171	208.593567
1.376236	204.026169
1.376301	158.661545
1.376366	217.558060
1.376431	240.181793
1.376495	176.709167
1.376560	181.211090
1.376625	221.947952
1.376690	226.441147
1.376755	208.292419
1.376820	199.204239
1.376885	194.645630
1.376950	212.718048
1.377015	221.734283
1.377079	217.174225
1.377144	189.996948
1.377209	239.719574
1.377274	212.547394
1.377339	180.862366
1.377404	212.479172
1.377469	185.324417
1.377534	235.007889
1.377599	225.932861
1.377664	207.824875
1.377729	203.274307
1.377795	230.340576
1.377860	221.272095
1.377925	198.661423
1.377990	180.572311
1.378055	212.138412
1.378120	176.001495
1.378185	239.143143
1.378250	171.433609
1.378315	171.406097
1.378381	216.478226
1.378446	261.535889
1.378511	234.442810
1.378576	229.897400
1.378641	229.860519
1.378706	216.304596
1.378772	175.719284
1.378837	202.720490
1.378902	207.192139
1.378968	220.669250
1.379033	202.622910
1.379098	202.590408
1.379163	180.051468
1.379228	211.526535
1.379294	170.994003
1.379359	188.963058
1.379424	242.913513
1.379490	193.400101
1.379555	197.866028
1.379620	247.292847
1.379686	202.298050
1.379751	202.265594
1.379817	233.691635
1.379882	193.214005
1.379947	202.168259
1.380013	220.103455
1.380078	238.032898
1.380144	179.618652
1.380209	202.038559
1.380275	197.517120
1.380340	188.508835
1.380406	237.842026
1.380471	210.882690
1.380537	260.196472
1.380602	215.300461
1.380668	237.689453
1.380733	228.683350
1.380799	219.680130
1.380864	188.267044
1.380930	237.536987
1.380995	201.649994
1.381061	206.098038
1.381127	241.902359
1.381192	201.552979
1.381258	232.868301
1.381323	237.308472
1.381389	210.409607
1.381455	250.660583
1.381520	241.669662
1.381586	228.206955
1.381652	250.539993
1.381717	196.821289
1.381783	228.097168
1.381849	205.701706
1.381914	241.437180
1.381980	183.284012
1.382046	232.420502
1.382112	227.914322
1.382177	214.473190
1.382243	236.776169
1.382309	232.271439
1.382375	227.768143
1.382441	232.196945
1.382506	227.695099
1.382572	241.050262
1.382638	214.232529
1.382704	227.585571
1.382770	196.316849
1.382836	267.661865
1.382902	245.317352
1.382967	254.197220
1.383033	196.190948
1.383099	209.533997
1.383165	276.362213
1.383231	218.380280
1.383297	209.433212
1.383363	271.773987
1.383429	236.093643
1.383495	209.332489
1.383561	253.830597
1.383627	227.075180
1.383693	244.845734
1.383759	262.610565
1.383825	209.164703
1.383891	262.526367
1.383957	266.933167
1.384023	280.234863
1.384089	253.505188
1.384155	289.038513
1.384221	275.654083
1.384287	257.828583
1.384354	200.007355
1.384420	257.745911
1.384486	262.147797
1.384552	279.875641
1.384618	248.738449
1.384684	284.226959
1.384750	284.181366
1.384817	266.377319
1.384883	213.067703
1.384949	257.415527
1.385015	270.686707
1.385082	235.149124
1.385148	243.983551
1.385214	270.556549
1.385280	221.732117
1.385347	226.130508
1.385413	257.126801
1.385479	323.573212
1.385545	252.612564
1.385612	296.882965
1.385678	212.658173
1.385744	265.780090
1.385811	217.018951
1.385877	270.123138
1.385943	270.079834
1.386010	261.182892
1.386076	252.288788
1.386143	252.248352
1.386209	287.605530
1.386275	252.167496
1.386342	230.010666
1.386408	252.086655
1.386475	238.780655
1.386541	225.478912
1.386608	300.590363
1.386674	304.961914
1.386741	282.817902
1.386807	287.190887
1.386874	295.980072
1.386940	260.597412
1.387007	260.555634
1.387073	264.929352
1.387140	264.886902
1.387206	295.742950
1.387273	251.561890
1.387340	273.584869
1.387406	282.364929
1.387473	255.852203
1.387540	308.737640
1.387606	260.180023
1.387673	268.956573
1.387739	255.688217
1.387806	321.762909
1.387873	295.269318
1.387939	295.221985
1.388006	295.174683
1.388073	295.127380
1.388140	317.100983
1.388206	202.559830
1.388273	281.777191
1.388340	224.505219
1.388407	250.877396
1.388473	290.443054
1.388540	294.796478
1.388607	219.962112
1.388674	303.499054
1.388741	294.654755
1.388807	285.813293
1.388874	233.010406
1.388941	268.138824
1.389008	320.836029
1.389075	281.235809
1.389142	272.403534
1.389209	307.503113
1.389275	285.492859
1.389342	272.272614
1.389409	254.665833
1.389476	276.575439
1.389543	285.309906
1.389610	302.818909
1.389677	280.830505
1.389744	298.334595
1.389811	267.580811
1.389878	289.467255
1.389945	328.887360
1.390012	284.990051
1.390079	267.409332
1.390146	271.749542
1.390213	276.088379
1.390280	284.807434
1.390347	258.476105
1.390414	284.716187
1.390481	306.568298
1.390549	332.792236
1.390616	245.176056
1.390683	267.023987
1.390750	337.009064
1.390817	262.562378
1.390884	288.772339
1.390952	328.097809
1.391019	306.175568
1.391086	293.006805
1.391153	257.979584
1.391220	240.450912
1.391288	292.865997
1.391355	310.300812
1.391422	262.184052
1.391489	314.570435
1.391556	310.151703
1.391624	275.160950
1.391691	283.850739
1.391758	331.833832
1.391826	288.125336
1.391893	270.619843
1.391960	340.402649
1.392028	349.075012
1.392095	261.764313
1.392162	296.618683
1.392230	283.487152
1.392297	287.802399
1.392365	300.836121
1.392432	257.195465
1.392499	313.815369
1.392567	291.975861
1.392634	305.000549
1.392702	313.664581
1.392769	313.614349
1.392837	322.274231
1.392904	261.261566
1.392972	335.231964
1.393039	352.590118
1.393107	300.306427
1.393174	356.828735
1.393242	343.718964
1.393309	308.862488
1.393377	291.415100
1.393444	326.158691
1.393512	330.454529
1.393579	282.580322
1.393647	308.615204
1.393715	343.333740
1.393782	325.897552
1.393850	334.534576
1.393918	295.385803
1.393985	317.054565
1.394053	290.948669
1.394121	329.978455
1.394188	334.266724
1.394256	312.511047
1.394324	334.159668
1.394392	295.054779
1.394459	295.007507
1.394527	325.323822
1.394595	359.967377
1.394662	320.883362
1.394730	329.503113
1.394798	329.450317
1.394866	290.389954
1.394934	312.010864
1.395001	329.292053
1.395069	320.575134
1.395137	333.517975
1.395205	407.086609
1.395273	333.411163
1.395341	294.393860
1.395409	354.947510
1.395476	302.955444
1.395544	324.543152
1.395612	311.511505
1.395680	328.765045
1.395748	350.338196
1.395816	363.255524
1.395884	302.664459
1.395952	397.723846
1.396020	302.567505
1.396088	384.631378
1.396156	328.396667
1.396224	358.586273
1.396292	319.652222
1.396360	341.195709
1.396428	332.504578
1.396496	405.849670
1.396564	379.883545
1.396632	323.712524
1.396701	349.553558
1.396769	349.497559
1.396837	388.268433
1.396905	362.325836
1.396973	301.889862
1.397041	362.209808
1.397109	357.840485
1.397177	383.647003
1.397246	392.205475
1.397314	374.905640
1.397382	387.771301
1.397450	305.859497
1.397518	344.575226
1.397587	322.987549
1.397655	361.688110
1.397723	370.240448
1.397791	404.616608
1.397860	335.691925
1.397928	391.577881
1.397996	361.398621
1.398064	339.832367
1.398133	391.389801
1.398201	374.125946
1.398270	343.968750
1.398338	369.707214
1.398406	382.542694
1.398475	395.374084
1.398543	365.232788
1.398611	399.543640
1.398680	378.002258
1.398748	334.993805
1.398817	369.292999
1.398885	382.114136
1.398954	382.052948
1.399022	360.531555
1.399090	343.308411
1.399159	368.997437
1.399227	420.418121
1.399296	368.879272
1.399364	343.088562
1.399433	390.200775
1.399502	368.702118
1.399570	385.789276
1.399639	394.299225
1.399707	351.384338
1.399776	402.741943
1.399844	394.109863
1.399913	441.161041
1.399982	389.701233
1.400050	385.357086
1.400119	389.576447
1.400187	419.476685
1.400256	363.773560
1.400325	389.389343
1.400394	355.100464
1.400462	384.987030
1.400531	359.263702
1.400600	474.665314
1.400668	354.873077
1.400737	380.465637
1.400806	418.872620
1.400875	393.164398
1.400943	388.828613
1.401012	375.949890
1.401081	439.961792
1.401150	384.371094
1.401219	380.039429
1.401287	392.786865
1.401356	388.455231
1.401425	375.588867
1.401494	332.855011
1.401563	379.735321
1.401632	430.866577
1.401701	413.736298
1.401770	383.817596
1.401838	400.811981
1.401907	396.484528
1.401976	396.421051
1.402045	413.405212
1.402114	421.861481
1.402183	400.491211
1.402252	413.206696
1.402321	349.252838
1.402390	434.366882
1.402459	417.266083
1.402528	391.656464
1.402597	412.876038
1.402666	438.344574
1.402735	451.039673
1.402804	425.440979
1.402873	425.372894
1.402943	429.557831
1.403012	395.470123
1.403081	412.413544
1.403150	318.825409
1.403219	399.530548
1.403288	378.218353
1.403357	437.643311
1.403427	446.069824
1.403496	441.750793
1.403565	428.939301
1.403634	441.609375
1.403703	458.520935
1.403772	390.529358
1.403842	441.397308
1.403911	428.596069
1.403980	424.284607
1.404050	441.185364
1.404119	385.975372
1.404188	419.840057
1.404257	457.934021
1.404327	411.226746
1.404396	402.683380
1.404465	402.618896
1.404535	385.604797
1.404604	419.436951
1.404673	389.717407
1.404743	444.714966
1.404812	440.409058
1.404882	444.572601
1.404951	436.034729
1.405020	448.662933
1.405090	440.127136
1.405159	435.825348
1.405229	439.986237
1.405298	444.145752
1.405368	414.469666
1.405437	435.546356
1.405507	456.616272
1.405576	405.816162
1.405646	519.868713
1.405715	443.719330
1.405785	477.450073
1.405854	502.720917
1.405924	447.730133
1.405994	430.765686
1.406063	460.254333
1.406133	493.955383
1.406202	451.664673
1.406272	451.592377
1.406342	464.179504
1.406411	438.790375
1.406481	489.341705
1.406551	421.778748
1.406620	472.316589
1.406690	468.024536
1.406760	421.576233
1.406829	476.304901
1.406899	514.158386
1.406969	459.297455
1.407039	459.223938
1.407108	526.548645
1.407178	488.558929
1.407248	505.324890
1.407318	442.088501
1.407387	450.437103
1.407457	416.692871
1.407527	462.917938
1.407597	509.128235
1.407667	504.839722
1.407737	471.108337
1.407806	487.855530
1.407876	441.522675
1.407946	508.720856
1.408016	517.046692
1.408086	491.746185
1.408156	537.892578
1.408226	499.991974
1.408296	483.108185
1.408366	424.227081
1.408436	466.155151
1.408506	503.870850
1.408576	445.014648
1.408646	470.128906
1.408716	436.478394
1.408786	465.782166
1.408856	457.316467
1.408926	515.971741
1.408996	524.277588
1.409066	478.064636
1.409136	448.637970
1.409206	549.179138
1.409276	532.325073
1.409346	511.285553
1.409417	515.393921
1.409487	502.742828
1.409557	498.473480
1.409627	464.888245
1.409697	523.438965
1.409767	519.168335
1.409838	489.782043
1.409908	464.590637
1.409978	472.885956
1.410048	510.467712
1.410118	552.220886
1.410189	547.949707
1.410259	455.854614
1.410329	531.048340
1.410399	526.782532
1.410470	543.418762
1.410540	539.152344
1.410610	547.423645
1.410681	518.089050
1.410751	513.828613
1.410821	517.923157
1.410892	559.601562
1.410962	538.634705
1.411033	538.548462
1.411103	567.681152
1.411173	525.855713
1.411244	554.981079
1.411314	563.236450
1.411385	579.832153
1.411455	513.006714
1.411526	575.476379
1.411596	537.859192
1.411667	529.435547
1.411737	533.518921
1.411808	525.098633
1.411878	520.847778
1.411949	570.757812
1.412019	545.673706
1.412090	587.234192
1.412160	557.991394
1.412231	562.065552
1.412301	636.905640
1.412372	561.885620
1.412443	628.378845
1.412513	570.027283
1.412584	594.896729
1.412655	574.004272
1.412725	582.229919
1.412796	586.294861
1.412867	661.035217
1.412937	598.577576
1.413008	573.544983
1.413079	627.474121
1.413149	519.349060
1.413220	610.656738
1.413291	544.103577
1.413362	523.252502
1.413432	589.602905
1.413503	572.902649
1.413574	622.620544
1.413645	581.019531
1.413716	580.926514
1.413786	584.982300
1.413857	580.740540
1.413928	593.090027
1.413999	638.610107
1.414070	555.584778
1.414141	514.040894
1.414212	526.393127
1.414282	563.606323
1.414353	580.090088
1.414424	633.854126
1.414495	608.899597
1.414566	554.962524
1.414637	530.028564
1.414708	587.906311
1.414779	654.044556
1.414850	579.440369
1.414921	649.697021
1.414992	595.805054
1.415063	632.941528
1.415134	665.929871
1.415205	636.874451
1.415276	649.177124
1.415347	545.717590
1.415419	591.099426
1.415490	557.941650
1.415561	665.290527
1.415632	648.657715
1.415703	615.506531
1.415774	549.323914
1.415845	631.827881
1.415916	598.695251
1.415988	681.164856
1.416059	577.865540
1.416130	561.265259
1.416201	668.458923
1.416272	647.723755
1.416344	664.119934
1.416415	618.646240
1.416486	668.031006
1.416557	585.464294
1.416629	634.838501
1.416700	688.318542
1.416771	688.208374
1.416843	651.015076
1.416914	626.192688
1.416985	700.234985
1.417057	671.294312
1.417128	650.598267
1.417199	605.206543
1.417271	662.739197
1.417342	703.790405
1.417414	613.146118
1.417485	658.306519
1.417557	637.632385
1.417628	633.417175
1.417699	678.552612
1.417771	670.220398
1.417842	633.113037
1.417914	661.784912
1.417985	686.337830
1.418057	690.337097
1.418128	673.792603
1.418200	628.498596
1.418271	722.863037
1.418343	689.895142
1.418415	718.525696
1.418486	718.410706
1.418558	632.100220
1.418629	640.206787
1.418701	566.246094
1.418772	726.155884
1.418844	709.631958
1.418916	721.822144
1.418988	775.014465
1.419059	705.191284
1.419131	676.383301
1.419203	684.472290
1.419274	745.832397
1.419346	614.598633
1.419418	647.273560
1.419489	741.378235
1.419561	696.210632
1.419633	679.720337
1.419705	667.329407
1.419776	744.997009
1.419848	658.930298
1.419920	728.390137
1.419992	666.902161
1.420064	658.613831
1.420136	736.220581
1.420207	678.850281
1.420279	740.073669
1.420351	748.131470
1.420423	690.786743
1.420495	702.936707
1.420567	768.203125
1.420639	698.626099
1.420711	743.447876
1.420783	714.739319
1.420855	706.457703
1.420927	702.261719
1.420999	673.573425
1.421071	710.200073
1.421143	673.357727
1.421215	693.651428
1.421287	758.814758
1.421359	652.639404
1.421431	750.415100
1.421503	697.285034
1.421575	766.482971
1.421647	741.901978
1.421719	721.404541
1.421791	757.964722
1.421863	810.810913
1.421935	786.238464
1.422007	847.209412
1.422080	716.754700
1.422152	736.999023
1.422224	781.663879
1.422296	785.609192
1.422368	748.854675
1.422441	756.873169
1.422513	744.546326
1.422585	724.087585
1.422657	752.442444
1.422730	825.520813
1.422802	727.805786
1.422874	821.191162
1.422946	760.089905
1.423019	804.672241
1.423091	796.416687
1.423163	792.226440
1.423236	836.782166
1.423308	820.402588
1.423380	816.210449
1.423453	820.139832
1.423525	832.186890
1.423598	844.230042
1.423670	771.048157
1.423742	888.592163
1.423815	787.028625
1.423887	774.734009
1.423960	807.054382
1.424032	843.419250
1.424105	806.795898
1.424177	814.773926
1.424250	806.537537
1.424322	802.356079
1.424395	781.969360
1.424467	834.507202
1.424540	846.524658
1.424612	830.190247
1.424685	797.664856
1.424757	817.779175
1.424830	878.364685
1.424903	890.365356
1.424975	817.386353
1.425048	825.347107
1.425121	821.169739
1.425193	865.528015
1.425266	788.555786
1.425339	796.515930
1.425411	861.069702
1.425484	889.225342
1.425557	860.793945
1.425629	892.981201
1.425702	913.038147
1.425775	824.026367
1.425848	840.049194
1.425920	872.219055
1.425993	855.929749
1.426066	835.608887
1.426139	879.872314
1.426212	875.695923
1.426284	891.694946
1.426357	831.039551
1.426430	838.973511
1.426503	883.200867
1.426576	874.994934
1.426649	939.360229
1.426722	826.343384
1.426795	902.786682
1.426867	963.086914
1.426940	922.642578
1.427013	817.757385
1.427086	878.042175
1.427159	934.280579
1.427232	893.866638
1.427305	998.393799
1.427378	949.932251
1.427451	881.363770
1.427524	869.151062
1.427597	941.429504
1.427670	844.737305
1.427743	904.930725
1.427817	864.573120
1.427890	868.455261
1.427963	884.396118
1.428036	972.679871
1.428109	920.281067
1.428182	936.205872
1.428255	903.916687
1.428328	980.090393
1.428401	987.965698
1.428475	907.497864
1.428548	931.441528
1.428621	991.505188
1.428694	947.197388
1.428768	963.097290
1.428841	906.771301
1.428914	982.846863
1.428987	946.590637
1.429061	974.511353
1.429134	898.171143
1.429207	1002.262573
1.429280	921.933838
1.429354	957.856079
1.429427	965.716858
1.429500	997.614075
1.429574	953.390015
1.429647	989.284058
1.429720	945.075500
1.429794	996.974976
1.429867	916.749817
1.429941	1076.708252
1.430014	1076.535767
1.430088	1032.348511
1.430161	980.173889
1.430234	1036.017822
1.430308	995.857605
1.430381	1051.681152
1.430455	1039.518188
1.430528	1099.314209
1.430602	1063.166382
1.430676	1047.011108
1.430749	982.914062
1.430823	1022.706055
1.430896	950.644714
1.430970	1030.365723
1.431043	962.319214
1.431117	1089.921387
1.431190	1033.862427
1.431264	1045.670044
1.431338	1077.426270
1.431411	977.507996
1.431485	1112.983765
1.431559	1060.954346
1.431632	1024.893188
1.431706	992.830811
1.431780	1028.551392
1.431854	1052.302612
1.431927	1052.134033
1.432001	1000.164124
1.432075	1039.844727
1.432149	1035.694702
1.432222	1107.219116
1.432296	1051.291504
1.432370	1051.123047
1.432444	967.355957
1.432518	1090.588745
1.432591	1062.556763
1.432665	982.807007
1.432739	1133.826416
1.432813	1070.001465
1.432887	1161.302490
1.432961	1117.375732
1.433035	1041.656738
1.433109	1140.868652
1.433183	1025.424927
1.433256	1092.816528
1.433330	1136.347046
1.433404	1064.658081
1.433478	1143.926880
1.433552	1127.858276
1.433626	1115.765503
1.433700	1091.766357
1.433774	1159.071533
1.433849	1071.572510
1.433923	1130.923096
1.433997	1095.034302
1.434071	1075.024414
1.434145	1150.210693
1.434219	1122.267212
1.434293	1141.912231
1.434367	1177.408325
1.434441	1070.199585
1.434515	1161.178711
1.434590	1145.142822
1.434664	1176.653809
1.434738	1148.737061
1.434812	1188.158203
1.434886	1148.368896
1.434960	1187.777466
1.435035	1140.083618
1.435109	1179.480835
1.435183	1187.206543
1.435258	1139.535645
1.435332	1198.694336
1.435406	1214.323975
1.435480	1281.361328
1.435555	1091.355103
1.435629	1162.344116
1.435703	1126.581543
1.435778	1225.208130
1.435852	1201.301880
1.435926	1220.864502
1.436001	1133.760376
1.436075	1188.875122
1.436149	1240.023193
1.436224	1200.339600
1.436298	1290.947754
1.436373	1211.796509
1.436447	1235.281738
1.436522	1160.110718
1.436596	1298.010986
1.436671	1364.862671
1.436745	1187.161377
1.436820	1309.217285
1.436894	1305.064575
1.436969	1296.971069
1.437043	1217.932617
1.437118	1221.678345
1.437192	1256.944946
1.437267	1335.536133
1.437342	1311.687988
1.437416	1268.155762
1.437491	1291.578857
1.437566	1240.189453
1.437640	1362.021484
1.437715	1334.252197
1.437790	1290.750977
1.437864	1420.385376
1.437939	1219.526001
1.438014	1294.063721
1.438088	1356.779297
1.438163	1281.852661
1.438238	1293.441528
1.438313	1328.611328
1.438387	1304.817383
1.438462	1367.480835
1.438537	1320.114746
1.438612	1280.620239
1.438686	1264.704346
1.438761	1366.604248
1.438836	1405.649048
1.438911	1346.537231
1.438986	1413.048706
1.439061	1389.275146
1.439136	1389.052368
1.439211	1329.980957
1.439285	1357.226074
1.439360	1353.086548
1.439435	1403.847290
1.439510	1376.177124
1.439585	1328.915161
1.439660	1403.172241
1.439735	1406.866089
1.439810	1488.923096
1.439885	1418.167725
1.439960	1511.947510
1.440035	1425.545776
1.440110	1409.654297
1.440185	1397.683105
1.440260	1373.972290
1.440335	1416.804077
1.440410	1463.535278
1.440486	1435.912598
1.440561	1560.864502
1.440636	1498.033203
1.440711	1372.651001
1.440786	1517.103149
1.440861	1454.308960
1.440936	1430.622925
1.441012	1332.689087
1.441087	1551.298340
1.441162	1433.841797
1.441237	1429.705566
1.441313	1359.174194
1.441388	1440.962280
1.441463	1507.106323
1.441538	1475.634277
1.441614	1576.880005
1.441689	1463.453491
1.441764	1506.139893
1.441840	1474.687988
1.441915	1497.855469
1.441990	1513.215454
1.442066	1473.978638
1.442141	1426.956787
1.442216	1496.894897
1.442292	1574.605591
1.442367	1539.280884
1.442443	1457.211914
1.442518	1538.787231
1.442593	1538.540405
1.442669	1682.386963
1.442744	1475.746338
1.442820	1537.800293
1.442895	1564.801514
1.442971	1490.604126
1.443046	1502.038940
1.443122	1630.190063
1.443197	1649.378784
1.443273	1633.556641
1.443349	1528.297119
1.443424	1559.157349
1.443500	1601.670288
1.443575	1640.282715
1.443651	1632.246948
1.443727	1608.671143
1.443802	1573.447510
1.443878	1608.155029
1.443953	1642.851440
1.444029	1611.522461
1.444105	1619.029053
1.444181	1591.595703
1.444256	1537.001953
1.444332	1575.562378
1.444408	1672.311523
1.444483	1613.851440
1.444559	1582.562012
1.444635	1671.506836
1.444711	1578.176758
1.444787	1670.970703
1.444862	1713.342285
1.444938	1724.694702
1.445014	1716.667725
1.445090	1631.153931
1.445166	1712.243164
1.445241	1622.884155
1.445317	1715.566528
1.445393	1711.419312
1.445469	1633.717285
1.445545	1660.550415
1.445621	1683.504761
1.445697	1807.058838
1.445773	1706.177979
1.445849	1752.323364
1.445925	1767.512817
1.446001	1751.761230
1.446077	1809.476196
1.446153	1809.185913
1.446229	1712.266602
1.446305	1704.262695
1.446381	1769.675903
1.446457	1738.485596
1.446533	1757.520020
1.446609	1784.272461
1.446685	1795.570557
1.446761	1775.978271
1.446838	1798.854614
1.446914	1871.898071
1.446990	1825.290161
1.447066	1852.005615
1.447142	1801.557983
1.447218	1816.697388
1.447294	1739.276123
1.447371	1792.979126
1.447447	1750.283691
1.447523	1846.368652
1.447599	1772.846069
1.447676	1876.603271
1.447752	1791.541016
1.447828	1864.444580
1.447904	1867.996826
1.447981	1898.504517
1.448057	1836.594971
1.448133	1824.751099
1.448210	1870.647095
1.448286	1920.376709
1.448362	1839.264038
1.448439	1858.204956
1.448515	1827.134033
1.448592	1934.528198
1.448668	1891.918701
1.448745	1945.441528
1.448821	1929.752808
1.448897	1902.538452
1.448974	1940.662109
1.449050	1875.031860
1.449127	1966.930786
1.449203	2039.594971
1.449280	2050.788818
1.449356	1793.192261
1.449433	1900.401978
1.449510	1873.226807
1.449586	1961.199341
1.449663	1872.625488
1.449739	1841.631104
1.449816	2129.044189
1.449892	1894.736938
1.449969	1913.607178
1.450046	1928.637085
1.450122	1978.165039
1.450199	2039.176025
1.450276	2061.843262
1.450352	2088.334961
1.450429	2011.375854
1.450506	1988.069458
1.450583	2087.329346
1.450659	1933.820312
1.450736	2090.488037
1.450813	2028.902466
1.450889	2009.439209
1.450966	2173.672852
1.451043	2135.061035
1.451120	2104.113037
1.451197	2077.000000
1.451273	2061.368652
1.451350	2110.747559
1.451427	2137.170898
1.451504	2133.005371
1.451581	2067.689209
1.451658	2166.712646
1.451735	2063.204590
1.451812	2093.434326
1.451889	2089.278809
1.451966	2100.399902
1.452043	2111.517578
1.452119	2183.714600
1.452196	2137.559082
1.452273	2110.500732
1.452350	2094.898438
1.452428	2155.605713
1.452505	2120.927979
1.452582	2261.705566
1.452659	2230.835205
1.452736	2165.659912
1.452813	2028.073975
1.452890	2187.833740
1.452967	2206.537109
1.453044	2187.131104
1.453121	2175.350586
1.453198	2167.383057
1.453276	2338.417480
1.453353	2181.918457
1.453430	2223.448242
1.453507	2215.477783
1.453584	2336.915527
1.453662	2256.625977
1.453739	2142.118652
1.453816	2373.832031
1.453893	2388.665039
1.453971	2297.009521
1.454048	2220.593018
1.454125	2360.901855
1.454202	2318.709961
1.454280	2299.334717
1.454357	2367.364502
1.454434	2287.198242
1.454512	2347.610352
1.454589	2480.167236
1.454666	2354.451172
1.454744	2168.025391
1.454821	2414.435547
1.454899	2322.951416
1.454976	2371.914062
1.455053	2363.944336
1.455131	2390.121338
1.455208	2461.808838
1.455286	2510.717529
1.455363	2354.841553
1.455441	2422.708740
1.455518	2422.319336
1.455596	2270.322754
1.455673	2300.274658
1.455751	2349.161865
1.455829	2269.228760
1.455906	2488.553955
1.455984	2522.238281
1.456061	2465.035156
1.456139	2419.208008
1.456217	2399.892578
1.456294	2418.430664
1.456372	2474.803711
1.456450	2584.127441
1.456527	2651.804199
1.456605	2507.651367
1.456683	2325.728271
1.456760	2514.407715
1.456838	2430.833740
1.456916	2468.241699
1.456994	2445.169678
1.457071	2584.586182
1.457149	2383.935547
1.457227	2527.094238
1.457305	2658.876709
1.457383	2537.610840
1.457460	2710.880615
1.457538	2589.645264
1.457616	2645.844971
1.457694	2569.944092
1.457772	2750.643555
1.457850	2640.797119
1.457928	2538.529785
1.458005	2541.893066
1.458084	2639.523926
1.458161	2582.547607
1.458239	2691.449219
1.458317	2649.558350
1.458395	2720.730713
1.458473	2520.604248
1.458551	2621.911377
1.458629	2742.018311
1.458707	2685.088867
1.458785	2726.075684
1.458863	2635.284912
1.458941	2664.974121
1.459020	2754.869141
1.459098	2758.189209
1.459176	2738.934570
1.459254	2655.737549
1.459332	2820.797607
1.459410	2756.416260
1.459488	2793.571777
1.459566	2763.048828
1.459645	2849.053467
1.459723	2754.644531
1.459801	2791.775879
1.459879	2761.272461
1.459957	2779.609863
1.460036	2899.343018
1.460114	2835.041504
1.460192	2774.515137
1.460271	2706.500244
1.460349	2856.193604
1.460427	2701.877441
1.460505	2877.787354
1.460584	2918.590088
1.460662	2903.117676
1.460740	3015.156738
1.460819	2845.940430
1.460897	2965.450439
1.460976	2837.528564
1.461054	2818.333252
1.461132	2866.593506
1.461211	2948.557373
1.461289	2891.893555
1.461368	2947.609375
1.461446	2947.135254
1.461525	2972.870605
1.461603	2878.803467
1.461682	3046.773926
1.461760	3083.707520
1.461839	3045.794189
1.461917	2918.104980
1.461996	2988.706299
1.462074	3134.083984
1.462153	3021.399170
1.462232	3084.472168
1.462310	3039.118408
1.462389	3016.204346
1.462467	3071.773438
1.462546	3119.852051
1.462625	2928.827148
1.462703	3017.999512
1.462782	2920.416016
1.462861	3110.377441
1.462940	3180.810791
1.463018	3210.161133
1.463097	3179.787598
1.463176	3209.128662
1.463254	3089.222168
1.463333	3155.871582
1.463412	3047.201416
1.463491	3307.751221
1.463570	3191.634277
1.463648	3265.679932
1.463727	3201.789795
1.463806	3186.367676
1.463885	3312.544189
1.463964	3237.500244
1.464043	3177.380371
1.464122	3176.869141
1.464200	3191.253174
1.464279	3246.586914
1.464358	3201.394043
1.464437	3260.430420
1.464516	3252.463135
1.464595	3255.660645
1.464674	3385.342285
1.464753	3336.443359
1.464832	3302.436035
1.464911	3365.116699
1.464990	3431.495117
1.465069	3271.104980
1.465148	3352.343018
1.465227	3292.348145
1.465307	3470.156250
1.465386	3417.591064
1.465465	3335.329346
1.465544	3316.224609
1.465623	3564.460693
1.465702	3407.967041
1.465781	3310.912354
1.465861	3369.758545
1.465940	3473.112793
1.466019	3420.614014
1.466098	3516.507812
1.466177	3538.194824
1.466257	3348.507080
1.466336	3529.640869
1.466415	3625.455078
1.466494	3524.798584
1.466574	3579.818604
1.466653	3497.727539
1.466732	3582.370850
1.466812	3522.530029
1.466891	3455.301270
1.466970	3662.104004
1.467050	3646.705566
1.467129	3505.456055
1.467209	3675.140137
1.467288	3596.839111
1.467367	3596.260254
1.467447	3625.275391
1.467526	3543.321289
1.467606	3568.637451
1.467685	3690.079590
1.467765	3671.001221
1.467844	3622.358643
1.467924	3703.080566
1.468003	3658.143311
1.468083	3605.831543
1.468162	3730.843750
1.468242	3645.297119
1.468321	3751.799072
1.468401	3666.276123
1.468481	3772.740234
1.468560	3775.823730
1.468640	3841.642090
1.468719	3870.541504
1.468799	3851.472656
1.468879	3758.638428
1.468958	3887.112061
1.469038	3805.364014
1.469118	3852.679443
1.469198	3752.532227
1.469277	3770.355957
1.469357	3898.723633
1.469437	3798.617188
1.469517	3882.732910
1.469596	3819.493164
1.469676	3778.369385
1.469756	3777.760986
1.469836	3666.709473
1.469916	3986.352295
1.469995	3849.541260
1.470075	4043.943115
1.470155	3899.808350
1.470235	3976.428223
1.470315	3894.874512
1.470395	4081.788818
1.470475	4081.131348
1.470555	3988.571533
1.470635	4134.949707
1.470715	4226.156738
1.470795	4104.223145
1.470875	4132.952148
1.470955	4169.018066
1.471035	4014.099121
1.471115	4171.347168
1.471195	4001.791992
1.471275	4184.686523
1.471355	4004.173096
1.471435	4135.633789
1.471515	4325.755859
1.471595	4167.316895
1.471675	4019.932861
1.471755	4213.648438
1.471835	4245.969727
1.471915	4116.973633
1.471996	4127.307129
1.472076	4225.593750
1.472156	4180.941406
1.472236	4275.523926
1.472317	4216.225586
1.472397	4083.695801
1.472477	4328.386230
1.472557	4111.670898
1.472638	4209.848145
1.472718	4414.138184
1.472798	4226.789551
1.472878	4248.062500
1.472959	4324.203613
1.473039	4378.374023
1.473119	4443.498047
1.473200	4274.578125
1.473280	4332.385742
1.473361	4269.544922
1.473441	4462.563965
1.473521	4363.179688
1.473602	4355.169434
1.473682	4566.346191
1.473763	4302.630859
1.473843	4418.798340
1.473924	4447.296875
1.474004	4450.230957
1.474084	4354.609863
1.474165	4419.600098
1.474246	4411.589844
1.474326	4480.197754
1.474407	4585.261719
1.474487	4511.578613
1.474568	4540.024414
1.474648	4521.062500
1.474729	4677.087402
1.474810	4461.287598
1.474890	4489.722656
1.474971	4591.021484
1.475052	4477.346191
1.475132	4695.173828
1.475213	4486.828613
1.475294	4515.235840
1.475374	4550.915527
1.475455	4473.738770
1.475536	4633.158203
1.475617	4825.276855
1.475697	4700.793457
1.475778	4685.484863
1.475859	4735.650391
1.475940	4723.977051
1.476020	4905.017090
1.476101	4529.774902
1.476182	4827.103516
1.476263	4710.028320
1.476344	4821.913574
1.476425	4810.236816
1.476506	4853.051270
1.476587	4688.831543
1.476668	4793.384766
1.476748	4854.334961
1.476829	4904.374512
1.476910	4939.879883
1.476991	4877.390137
1.477072	4804.035156
1.477153	4825.027344
1.477234	4896.794434
1.477315	4917.764648
1.477396	4877.084961
1.477477	4879.923828
1.477558	4861.012207
1.477640	4878.350098
1.477721	4826.830566
1.477802	4934.747070
1.477883	5006.402832
1.477964	4820.873535
1.478045	5026.516602
1.478126	5047.430664
1.478207	4941.629395
1.478289	4980.648926
1.478370	4972.607422
1.478451	5073.123047
1.478532	5050.597168
1.478613	5154.685059
1.478695	5146.620117
1.478776	5037.305176
1.478857	5282.351562
1.478938	5133.284668
1.479020	5034.867676
1.479101	5048.510742
1.479182	5297.009766
1.479264	5119.135254
1.479345	5204.999023
1.479427	5200.547852
1.479508	5102.214355
1.479589	5112.222168
1.479671	5346.030762
1.479752	5439.006348
1.479833	5221.613770
1.479915	5062.019531
1.479996	5389.477539
1.480078	5284.009766
1.480159	5369.707031
1.480241	5466.193848
1.480322	5317.503418
1.480404	5406.757812
1.480485	5312.183105
1.480567	5491.493164
1.480649	5508.620605
1.480730	5424.881836
1.480812	5287.145508
1.480893	5369.115723
1.480975	5353.847656
1.481057	5442.979980
1.481138	5442.101562
1.481220	5448.420410
1.481301	5386.373047
1.481383	5407.088867
1.481465	5776.702148
1.481547	5376.572754
1.481628	5436.833496
1.481710	5586.954590
1.481792	5395.537598
1.481874	5538.428711
1.481955	5436.917480
1.482037	5489.933105
1.482119	5697.400879
1.482201	5585.137695
1.482283	5612.965332
1.482364	5766.453613
1.482446	5489.093262
1.482528	5498.975586
1.482610	5591.397461
1.482692	5669.436035
1.482774	5557.303223
1.482856	5764.457031
1.482938	5720.488281
1.483020	5644.260254
1.483102	5571.641602
1.483184	5649.607422
1.483266	5799.231445
1.483347	5920.138184
1.483429	5786.609863
1.483512	5817.917480
1.483593	5763.249512
1.483676	5859.014160
1.483758	5743.484863
1.483840	5656.633789
1.483922	5934.926758
1.484004	5833.756836
1.484086	5850.707031
1.484168	5964.252930
1.484250	6038.412109
1.484332	5901.522949
1.484415	5818.319336
1.484497	5924.645508
1.484579	5848.614746
1.484661	5979.921875
1.484743	5989.677246
1.484826	6045.881348
1.484908	5794.820312
1.484990	6015.352051
1.485072	6075.095703
1.485155	6041.976074
1.485237	5916.038574
1.485319	6025.745117
1.485402	5960.526855
1.485484	6137.994141
1.485566	6236.907227
1.485649	6182.387695
1.485731	5978.077637
1.485813	6116.197266
1.485896	5922.660156
1.485978	6256.827148
1.486061	6188.089355
1.486143	6272.625488
1.486226	6225.287598
1.486308	6363.232422
1.486391	6255.336426
1.486473	6272.134277
1.486556	6356.587402
1.486638	6149.049316
1.486721	6304.693848
1.486803	6431.812988
1.486886	6256.392090
1.486968	6383.477539
1.487051	6400.234375
1.487134	6527.255371
1.487216	6319.922852
1.487299	6343.792969
1.487382	6509.869629
1.487464	6377.290527
1.487547	6351.380371
1.487630	6410.766113
1.487712	6288.925781
1.487795	6543.688477
1.487878	6500.007812
1.487960	6449.238281
1.488043	6519.211426
1.488126	6496.856445
1.488209	6481.607910
1.488292	6366.990723
1.488374	6486.609863
1.488457	6364.932617
1.488540	6431.302734
1.488623	6607.601074
1.488706	6429.224121
1.488789	6637.375488
1.488872	6795.828613
1.488954	6720.296387
1.489037	6839.702148
1.489120	6781.903320
1.489203	6674.524902
1.489286	6754.915527
1.489369	6537.786133
1.489452	6731.485352
1.489535	6755.180176
1.489618	6793.026367
1.489701	6834.399902
1.489784	6649.280762
1.489867	6789.731934
1.489950	6816.934570
1.490033	6670.814941
1.490116	6903.141602
1.490200	6792.413086
1.490283	6710.002930
1.490366	6998.765625
1.490449	6909.279785
1.490532	6922.296875
1.490615	6981.238281
1.490699	6845.876465
1.490782	6989.576172
1.490865	6854.256348
1.490948	6920.231445
1.491031	7035.607422
1.491115	7009.762695
1.491198	6920.403320
1.491281	6993.381348
1.491364	7052.224121
1.491448	7188.647949
1.491531	7113.423828
1.491614	7080.537598
1.491698	7030.034180
1.491781	7127.597656
1.491865	7277.996094
1.491948	7054.813965
1.492031	7162.895508
1.492115	6950.372070
1.492198	7171.144531
1.492282	7339.021484
1.492365	7316.707520
1.492448	7241.594238
1.492532	7170.024414
1.492615	7225.173828
1.492699	7160.666992
1.492782	7353.008789
1.492866	7175.937988
1.492949	7139.606445
1.493033	7117.352539
1.493117	7306.059570
1.493200	7315.423340
1.493284	7500.522461
1.493367	7467.681152
1.493451	7466.472656
1.493535	7191.245117
1.493618	7323.556152
1.493702	7238.084473
1.493786	7398.436035
1.493869	7467.454102
1.493953	7603.144531
1.494037	7222.871094
1.494121	7688.410645
1.494204	7532.791504
1.494288	7278.999512
1.494372	7488.264160
1.494456	7504.586426
1.494539	7482.333984
1.494623	7344.401367
1.494707	7518.468262
1.494791	7699.487305
1.494875	7491.506348
1.494959	7735.532227
1.495043	7671.229004
1.495126	7512.384277
1.495210	7962.888672
1.495294	7688.510742
1.495378	7641.758301
1.495462	7665.020996
1.495546	7586.792480
1.495630	7561.071777
1.495714	7510.871094
1.495798	7768.487793
1.495882	7627.343262
1.495966	7531.699707
1.496050	7740.242676
1.496134	7728.502930
1.496219	7783.169922
1.496303	7886.739746
1.496387	7745.711426
1.496471	8006.448242
1.496555	7785.114746
1.496639	7860.679688
1.496723	7936.220215
1.496807	7774.351074
1.496892	7912.707520
1.496976	7873.037598
1.497060	7889.208984
1.497144	8051.899414
1.497229	7883.165039
1.497313	7996.978027
1.497397	7953.838379
1.497481	8126.871582
1.497566	8027.951172
1.497650	8030.135742
1.497734	8098.529785
1.497819	8037.986816
1.497903	7960.045410
1.497987	8087.628418
1.498072	7981.843750
1.498156	8199.911133
1.498240	7944.444336
1.498325	8200.735352
1.498409	8432.582031
1.498494	8058.891602
1.498578	7984.524902
1.498663	8007.581055
1.498747	8041.063477
1.498832	8241.450195
1.498916	8156.670410
1.499001	8127.538086
1.499085	8463.365234
1.499170	8361.214844
1.499254	8227.825195
1.499339	8254.284180
1.499424	8107.061035
1.499508	8449.564453
1.499593	8281.522461
1.499678	8182.970703
1.499762	8160.817383
1.499847	8357.321289
1.499931	8290.035156
1.500016	8482.985352
1.500101	8089.617676
1.500186	8549.603516
1.500270	8395.632812
1.500355	8234.777344
1.500440	8399.844727
1.500525	8256.371094
1.500609	8310.481445
1.500694	8281.414062
1.500779	8273.142578
1.500864	8583.552734
1.500949	8547.528320
1.501033	8452.647461
1.501118	8444.352539
1.501203	8314.902344
1.501288	8469.302734
1.501373	8713.627930
1.501458	8508.076172
1.501543	8596.641602
1.501628	8629.836914
1.501713	8497.022461
1.501798	8595.917969
1.501883	8421.666016
1.501968	8544.738281
1.502053	8557.176758
1.502138	8697.463867
1.502223	8640.774414
1.502308	8746.458984
1.502393	8762.309570
1.502478	8598.585938
1.502563	8707.676758
1.502648	8740.786133
1.502734	8770.432617
1.502819	8900.148438
1.502904	8871.101562
1.502989	8735.117188
1.503074	8995.848633
1.503160	8632.268555
1.503245	8765.348633
1.503330	8812.194336
1.503415	8662.540039
1.503500	8692.153320
1.503586	8849.257812
1.503671	8847.822266
1.503756	9070.302734
1.503842	8817.397461
1.503927	8809.079102
1.504012	8972.922852
1.504098	8943.925781
1.504183	9056.062500
1.504268	9157.837891
1.504354	9204.525391
1.504439	9034.453125
1.504525	9057.066406
1.504610	9007.446289
1.504696	9074.758789
1.504781	8908.254883
1.504866	8858.683594
1.504952	9039.408203
1.505037	9268.185547
1.505123	8826.883789
1.505208	9148.375000
1.505294	9208.716797
1.505380	8956.522461
1.505465	9109.584961
1.505551	9097.806641
1.505636	9230.200195
1.505722	9098.286133
1.505808	9374.757812
1.505893	8999.266602
1.505979	8994.375977
1.506065	9095.809570
1.506150	9214.356445
1.506236	9085.999023
1.506322	9454.761719
1.506407	9346.971680
1.506493	9342.027344
1.506579	9179.467773
1.506665	9428.067383
1.506750	9179.913086
1.506836	9288.015625
1.506922	9378.960938
1.507008	9086.426758
1.507094	9382.761719
1.507180	9220.377930
1.507266	9639.788086
1.507351	9549.264648
1.507437	9212.466797
1.507523	9436.712891
1.507609	9370.204102
1.507695	9543.063477
1.507781	9213.321289
1.507867	9594.654297
1.507953	9569.172852
1.508039	9348.930664
1.508125	9617.311523
1.508211	9441.539062
1.508297	9535.634766
1.508383	9564.819336
1.508469	9382.311523
1.508555	9524.162109
1.508641	9283.696289
1.508727	9555.193359
1.508814	9645.765625
1.508900	9521.385742
1.508986	9485.730469
1.509072	9692.220703
1.509158	9451.959961
1.509244	9839.079102
1.509331	9687.498047
1.509417	9460.987305
1.509503	9687.757812
1.509589	9464.726562
1.509676	9674.390625
1.509762	9856.738281
1.509848	9756.380859
1.509934	9914.822266
1.510021	9691.933594
1.510107	9863.948242
1.510193	9818.104492
1.510280	9612.352539
1.510366	9882.955078
1.510453	9806.515625
1.510539	9709.695312
1.510625	9929.142578
1.510712	9777.936523
1.510798	10014.296875
1.510885	9825.739258
1.510971	10017.838867
1.511058	9927.872070
1.511144	10031.567383
1.511231	9938.230469
1.511317	9753.232422
1.511404	9867.091797
1.511490	9967.333984
1.511577	9918.193359
1.511663	10055.724609
1.511750	10216.964844
1.511837	10086.382812
1.511923	9847.294922
1.512010	9964.398438
1.512097	9935.650391
1.512183	9917.083008
1.512270	10145.983398
1.512357	10188.395508
1.512443	10115.574219
1.512530	10263.012695
1.512617	10010.654297
1.512703	10015.800781
1.512790	10136.088867
1.512877	10029.473633
1.512964	10217.430664
1.513051	10422.250977
1.513137	9983.968750
1.513224	10165.072266
1.513311	10007.788086
1.513398	10182.062500
1.513485	10264.961914
1.513572	9955.562500
1.513659	10379.960938
1.513746	10266.714844
1.513833	10139.985352
1.513919	10013.295898
1.514006	10204.264648
1.514093	10395.169922
1.514180	10332.678711
1.514267	10449.201172
1.514354	10302.303711
1.514441	10472.811523
1.514529	10619.633789
1.514616	10223.025391
1.514703	10329.345703
1.514790	10246.690430
1.514877	10197.795898
1.514964	10604.251953
1.515051	10167.499023
1.515138	10371.521484
1.515225	10454.114258
1.515313	10418.707031
1.515400	10450.712891
1.515487	10368.142578
1.515574	10497.846680
1.515661	10358.031250
1.515749	10598.835938
1.515836	10509.558594
1.515923	10470.813477
1.516011	10701.381836
1.516098	10305.850586
1.516185	10536.370117
1.516273	10400.070312
1.516360	10519.484375
1.516447	10729.674805
1.516535	10431.985352
1.516622	10554.697266
1.516709	10589.959961
1.516797	10752.942383
1.516884	10418.472656
1.516972	10759.522461
1.517059	10640.181641
1.517147	10567.906250
1.517234	10737.475586
1.517322	10745.800781
1.517409	10478.807617
1.517497	10775.872070
1.517584	10673.424805
1.517672	10711.957031
1.517759	10877.979492
1.517847	10752.081055
1.517935	10965.001953
1.518022	10775.409180
1.518110	10602.644531
1.518197	10661.264648
1.518285	10562.318359
1.518373	10778.446289
1.518461	10682.864258
1.518548	10691.175781
1.518636	10890.426758
1.518724	11183.393555
1.518811	10846.694336
1.518899	10828.185547
1.518987	10719.295898
1.519075	10881.560547
1.519163	11160.901367
1.519250	10740.827148
1.519338	10836.097656
1.519426	10988.200195
1.519514	10926.210938
1.519602	10804.051758
1.519690	10875.844727
1.519778	11041.211914
1.519865	10985.936523
1.519953	11017.563477
1.520041	10952.287109
1.520129	11003.952148
1.520217	10861.876953
1.520305	11057.137695
1.520393	11062.014648
1.520481	11253.840820
1.520569	11031.706055
1.520657	10996.535156
1.520745	10978.059570
1.520833	10902.873047
1.520922	11348.081055
1.521010	10949.346680
1.521098	10824.180664
1.521186	11145.822266
1.521274	11107.336914
1.521362	10848.886719
1.521450	11087.054688
1.521539	11185.204102
1.521627	11040.132812
1.521715	11224.858398
1.521803	11339.588867
1.521892	11127.966797
1.521980	11182.749023
1.522068	11254.156250
1.522156	11022.682617
1.522245	10854.506836
1.522333	11441.620117
1.522421	11383.204102
1.522510	11135.229492
1.522598	11439.349609
1.522686	11111.649414
1.522775	11206.242188
1.522863	11054.845703
1.522952	11514.970703
1.523040	11204.083984
1.523129	11225.511719
1.523217	11263.540039
1.523306	11354.693359
1.523394	11372.764648
1.523483	11453.909180
1.523571	11159.930664
1.523660	11187.980469
1.523748	11338.799805
1.523837	11453.074219
1.523925	11328.466797
1.524014	11432.753906
1.524102	11434.205078
1.524191	11190.298828
1.524280	11423.845703
1.524368	11650.686523
1.524457	11350.524414
1.524546	11295.656250
1.524634	11360.072266
1.524723	11507.277344
1.524812	11485.528320
1.524901	11566.437500
1.524989	11372.525391
1.525078	11354.119141
1.525167	11676.616211
1.525256	11492.708008
1.525344	11421.351562
1.525433	11548.502930
1.525522	11754.993164
1.525611	11514.970703
1.525700	11288.251953
1.525789	11593.860352
1.525878	11453.142578
1.525967	11573.552734
1.526055	11584.880859
1.526144	11566.471680
1.526233	11501.822266
1.526322	11592.419922
1.526411	11534.391602
1.526500	11407.047852
1.526589	11768.302734
1.526678	11654.164062
1.526767	11929.460938
1.526857	11554.675781
1.526946	12186.180664
1.527035	21076.605469
1.527124	30910.605469
1.527213	30585.720703
1.527302	14654.089844
1.527391	11787.282227
1.527480	11686.487305
1.527570	11661.512695
1.527659	11893.525391
1.527748	11605.000000
1.527837	11813.890625
1.527926	11844.891602
1.528016	11675.041992
1.528105	11689.594727
1.528194	11483.620117
1.528283	11840.446289
1.528373	11595.030273
1.528462	11846.449219
1.528551	11765.572266
1.528641	11543.308594
1.528730	12159.596680
1.528819	11920.901367
1.528909	11590.246094
1.528998	11801.978516
1.529088	11694.898438
1.529177	11932.827148
1.529267	11674.653320
1.529356	11669.461914
1.529446	11808.761719
1.529535	11622.965820
1.529624	12028.132812
1.529714	11930.982422
1.529804	11846.990234
1.529893	11631.777344
1.529983	11974.344727
1.530072	11785.421875
1.530162	11727.743164
1.530252	11712.710938
1.530341	12077.989258
1.530431	11672.826172
1.530520	11628.311523
1.530610	11921.332031
1.530700	11922.660156
1.530789	11855.195312
1.530879	11872.909180
1.530969	11805.473633
1.531059	12052.384766
1.531149	12246.834961
1.531238	11868.421875
1.531328	11892.663086
1.531418	11982.336914
1.531508	11882.232422
1.531597	12298.978516
1.531687	11721.365234
1.531777	11971.233398
1.531867	12096.783203
1.531957	12232.097656
1.532047	12177.804688
1.532137	11963.407227
1.532227	11866.700195
1.532317	12155.499023
1.532407	12081.655273
1.532497	12249.494141
1.532587	12250.755859
1.532677	12010.437500
1.532767	12289.182617
1.532857	12075.043945
1.532947	12154.644531
1.533037	12103.719727
1.533127	12118.049805
1.533217	12187.818359
1.533307	12084.738281
1.533397	12020.815430
1.533487	12142.721680
1.533577	11831.106445
1.533668	12155.043945
1.533758	12377.870117
1.533848	12128.263672
1.533938	12282.622070
1.534029	12472.751953
1.534119	12125.568359
1.534209	12211.484375
1.534299	12215.996094
1.534390	12311.631836
1.534480	12322.632812
1.534570	12141.680664
1.534661	12328.359375
1.534751	12147.464844
1.534841	12158.484375
1.534932	12169.500000
1.535022	12177.260742
1.535112	12451.535156
1.535203	12186.274414
1.535293	12236.265625
1.535384	12416.185547
1.535474	12384.920898
1.535565	12395.884766
1.535655	12072.401367
1.535746	12300.925781
1.535836	12289.174805
1.535927	12296.899414
1.536017	12028.805664
1.536108	12344.783203
1.536198	12284.374023
1.536289	12194.793945
1.536380	12497.618164
1.536470	12326.975586
1.536561	12441.659180
1.536652	12374.798828
1.536742	12359.809570
1.536833	12659.117188
1.536924	12637.606445
1.537014	12146.440430
1.537105	12319.332031
1.537196	12375.598633
1.537287	12444.796875
1.537377	12190.278320
1.537468	12437.484375
1.537559	12577.826172
1.537650	12333.116211
1.537741	12450.784180
1.537832	12474.619141
1.537922	12530.784180
1.538013	12551.364258
1.538104	12465.258789
1.538195	12660.378906
1.538286	12583.977539
1.538377	12711.160156
1.538468	12515.244141
1.538559	12587.484375
1.538650	12343.208984
1.538741	12683.459961
1.538832	12565.157227
1.538923	12656.708984
1.539014	12441.626953
1.539105	12513.806641
1.539196	12514.982422
1.539287	12593.577148
1.539378	12491.530273
1.539469	12586.226562
1.539561	12622.854492
1.539652	12359.666992
1.539743	12870.125977
1.539834	12539.306641
1.539925	12714.468750
1.540017	12870.242188
1.540108	12388.195312
1.540199	12911.111328
1.540290	12609.535156
1.540382	12601.030273
1.540473	12579.650391
1.540564	12439.197266
1.540655	12627.013672
1.540747	12908.072266
1.540838	12693.644531
1.540930	12752.673828
1.541021	12773.093750
1.541112	12761.354492
1.541204	12711.041016
1.541295	12628.602539
1.541386	12861.129883
1.541478	13006.826172
1.541569	12847.275391
1.541661	12768.078125
1.541752	12955.467773
1.541844	12831.323242
1.541935	12899.850586
1.542027	12801.436523
1.542119	12677.376953
1.542210	12925.595703
1.542302	12567.341797
1.542393	12635.854492
1.542485	12877.541016
1.542577	12641.331055
1.542668	12693.764648
1.542760	13076.375977
1.542852	12772.937500
1.542943	12985.559570
1.543035	12861.669922
1.543127	12888.392578
1.543218	12783.777344
1.543310	13044.295898
1.543402	12801.999023
1.543494	12844.720703
1.543586	12845.814453
1.543677	13061.342773
1.543769	12921.599609
1.543861	12967.471680
1.543953	12661.443359
1.544045	12988.803711
1.544137	13127.379883
1.544228	12930.186523
1.544320	12749.041016
1.544412	12980.280273
1.544504	12770.423828
1.544596	12698.031250
1.544688	13063.343750
1.544780	12866.352539
1.544872	13011.151367
1.544964	12922.799805
1.545056	13000.495117
1.545148	12963.248047
1.545240	12926.012695
1.545332	13038.769531
1.545425	13046.201172
1.545517	13127.000000
1.545609	12984.506836
1.545701	12877.138672
1.545793	12884.589844
1.545885	12990.864258
1.545977	13103.478516
1.546070	13152.317383
1.546162	12962.162109
1.546254	13195.787109
1.546346	13250.956055
1.546439	12863.418945
1.546531	13001.415039
1.546623	12913.318359
1.546715	13086.276367
1.546808	12921.808594
1.546900	13244.269531
1.546993	13137.099609
1.547085	13163.572266
1.547177	12817.903320
1.547270	12888.940430
1.547362	13064.879883
1.547454	13132.672852
1.547547	13092.373047
1.547639	13176.029297
1.547732	12906.956055
1.547824	12755.517578
1.547917	13201.300781
1.548010	13037.160156
1.548102	12882.599609
1.548195	12947.155273
1.548287	13160.884766
1.548380	13260.285156
1.548472	13312.052734
1.548565	13290.828125
1.548658	13098.308594
1.548750	13112.014648
1.548843	13465.037109
1.548936	13231.363281
1.549028	13099.210938
1.549121	13404.515625
1.549214	13139.274414
1.549306	13140.283203
1.549399	13274.351562
1.549492	12892.060547
1.549585	13228.817383
1.549677	13397.635742
1.549770	13221.302734
1.549863	13355.246094
1.549956	13251.770508
1.550049	13230.605469
1.550142	13035.430664
1.550235	13112.373047
1.550327	13268.362305
1.550420	12940.456055
1.550513	13241.867188
1.550606	13239.689453
1.550699	13253.316406
1.550792	13440.755859
1.550885	13220.520508
1.550978	12997.198242
1.551071	13039.283203
1.551164	13327.695312
1.551257	13249.718750
1.551350	13348.570312
1.551444	13270.615234
1.551537	13189.528320
1.551630	13360.918945
1.551723	13232.516602
1.551816	13198.794922
1.551909	13086.231445
1.552002	13326.902344
1.552096	13201.741211
1.552189	13268.924805
1.552282	13276.198242
1.552375	13195.227539
1.552469	13429.378906
1.552562	13203.488281
1.552655	13289.513672
1.552748	13230.637695
1.552842	13253.652344
1.552935	13301.844727
1.553028	13041.533203
1.553122	13373.003906
1.553215	12933.396484
1.553308	13208.141602
1.553402	13281.466797
1.553495	13310.734375
1.553589	13189.042969
1.553682	13193.161133
1.553776	13128.115234
1.553869	13176.246094
1.553963	13164.649414
1.554056	13228.467773
1.554150	13263.990234
1.554243	13217.831055
1.554337	13331.857422
1.554430	13414.445312
1.554524	13355.724609
1.554618	13472.809570
1.554711	13222.647461
1.554805	13192.228516
1.554899	13149.268555
1.554992	13209.843750
1.555086	13342.537109
1.555180	13252.533203
1.555273	13297.382812
1.555367	13207.415039
1.555461	13443.455078
1.555555	13315.885742
1.555648	13482.894531
1.555742	13345.961914
1.555836	13259.190430
1.555930	13119.206055
1.556024	13329.974609
1.556117	13196.286133
1.556211	13488.358398
1.556305	13395.373047
1.556399	13596.568359
1.556493	13412.862305
1.556587	13307.421875
1.556681	13402.187500
1.556775	13268.638672
1.556869	13250.819336
1.556963	13436.205078
1.557057	13371.478516
1.557151	13356.775391
1.557245	13282.708008
1.557339	13421.104492
1.557433	13256.466797
1.557527	13404.189453
1.557621	13367.631836
1.557715	13409.137695
1.557810	13410.049805
1.557904	13485.865234
1.557998	13343.220703
1.558092	13185.022461
1.558186	13457.362305
1.558280	13389.645508
1.558375	13534.005859
1.558469	13369.642578
1.558563	13245.860352
1.558657	13468.092773
1.558752	13618.575195
1.558846	13310.975586
1.558940	13477.009766
1.559035	13418.721680
1.559129	13606.482422
1.559223	13373.817383
1.559318	13384.065430
1.559412	13403.648438
1.559507	13339.193359
1.559601	13305.875977
1.559695	13306.792969
1.559790	13603.228516
1.559884	13448.584961
1.559979	13412.160156
1.560073	13266.925781
1.560168	13389.084961
1.560262	13349.579102
1.560357	13443.713867
1.560452	13422.853516
1.560546	13367.827148
1.560641	13182.361328
1.560735	13515.591797
1.560830	13336.372070
1.560925	13445.937500
1.561019	13372.326172
1.561114	13581.161133
1.561209	13144.495117
1.561303	13424.656250
1.561398	13717.133789
1.561493	13414.024414
1.561588	13644.385742
1.561682	13496.411133
1.561777	13639.882812
1.561872	13482.659180
1.561967	13591.997070
1.562062	13797.348633
1.562157	13547.238281
1.562251	13622.437500
1.562346	13440.568359
1.562441	13559.110352
1.562536	13386.598633
1.562631	13727.975586
1.562726	13496.689453
1.562821	13639.896484
1.562916	13510.796875
1.563011	13412.673828
1.563106	13698.091797
1.563201	13395.876953
1.563296	13582.264648
1.563391	13632.574219
1.563486	13621.050781
1.563581	13408.664062
1.563676	13795.759766
1.563771	13614.305664
1.563866	13655.299805
1.563962	13520.250977
1.564057	13431.562500
1.564152	13525.047852
1.564247	13439.473633
1.564342	13668.717773
1.564438	13277.665039
1.564533	13537.711914
1.564628	13735.978516
1.564723	13551.745117
1.564819	13537.171875
1.564914	13738.422852
1.565009	13520.370117
1.565105	13444.166016
1.565200	13793.247070
1.565295	13858.752930
1.565391	13739.401367
1.565486	13740.210938
1.565582	13750.259766
1.565677	13464.714844
1.565773	13601.024414
1.565868	13669.572266
1.565964	13661.158203
1.566059	13914.293945
1.566154	13545.889648
1.566250	13678.995117
1.566346	13762.848633
1.566441	13634.500000
1.566537	13835.162109
1.566632	13983.500000
1.566728	13793.708008
1.566823	13769.916992
1.566919	13632.453125
1.567015	13906.674805
1.567110	13624.875977
1.567206	13558.133789
1.567302	13829.160156
1.567398	13915.901367
1.567493	13677.256836
1.567589	13803.888672
1.567685	13890.589844
1.567781	13679.677734
1.567876	13987.220703
1.567972	13635.285156
1.568068	13964.197266
1.568164	13937.361328
1.568260	13775.658203
1.568356	13804.029297
1.568452	13780.295898
1.568547	13710.612305
1.568643	14094.323242
1.568739	13984.793945
1.568835	14013.103516
1.568931	13882.190430
1.569027	14042.142578
1.569123	13782.713867
1.569219	13890.604492
1.569315	13977.040039
1.569411	13879.890625
1.569507	13960.180664
1.569603	13887.532227
1.569700	13830.194336
1.569796	14038.856445
1.569892	13920.377930
1.569988	13884.456055
1.570084	13668.257812
1.570180	13812.646484
1.570276	13807.306641
1.570373	13921.081055
1.570469	13982.905273
1.570565	13727.175781
1.570661	13697.429688
1.570758	13869.137695
1.570854	14101.822266
1.570950	14136.102539
1.571047	13990.380859
1.571143	14049.068359
1.571239	14007.097656
1.571336	14132.843750
1.571432	14273.790039
1.571528	13963.564453
1.571625	14031.348633
1.571721	14062.543945
1.571818	13892.651367
1.571914	14191.917969
1.572011	14073.834961
1.572107	13879.662109
1.572204	14133.111328
1.572300	13829.404297
1.572397	14091.908203
1.572493	13983.065430
1.572590	14148.092773
1.572687	13978.434570
1.572783	14225.530273
1.572880	14031.585938
1.572976	14260.346680
1.573073	13960.056641
1.573170	14118.841797
1.573266	14128.659180
1.573363	14296.479492
1.573460	14032.836914
1.573557	13866.484375
1.573653	14368.338867
1.573750	14132.143555
1.573847	14454.660156
1.573944	13945.328125
1.574041	14006.753906
1.574137	14171.333008
1.574234	13883.785156
1.574331	14115.067383
1.574428	14094.530273
1.574525	13889.014648
1.574622	14250.556641
1.574719	14266.384766
1.574816	13979.103516
1.574913	14258.625977
1.575010	14071.430664
1.575107	14138.777344
1.575204	14275.769531
1.575301	14258.260742
1.575398	14274.064453
1.575495	14120.323242
1.575592	14414.629883
1.575689	14148.933594
1.575786	14261.576172
1.575883	14225.931641
1.575980	14368.773438
1.576077	14535.762695
1.576175	14415.416992
1.576272	14249.757812
1.576369	14377.383789
1.576466	14175.514648
1.576563	14206.406250
1.576661	14273.544922
1.576758	14458.479492
1.576855	14208.401367
1.576952	14218.125000
1.577050	14306.351562
1.577147	14310.016602
1.577244	14349.901367
1.577342	14788.148438
1.577439	14293.844727
1.577537	14182.861328
1.577634	14412.778320
1.577731	14488.803711
1.577829	14329.594727
1.577926	14462.891602
1.578024	14593.129883
1.578121	14415.897461
1.578219	14603.354492
1.578316	14170.075195
1.578414	14508.134766
1.578511	14535.846680
1.578609	14464.170898
1.578707	14552.099609
1.578804	14338.951172
1.578902	14453.960938
1.579000	14331.182617
1.579097	14376.948242
1.579195	14621.257812
1.579293	14408.271484
1.579390	14613.396484
1.579488	14502.719727
1.579586	14346.981445
1.579683	14666.240234
1.579781	14615.717773
1.579879	14445.011719
1.579977	14836.203125
1.580075	14356.104492
1.580173	14681.101562
1.580270	14468.454102
1.580368	14490.072266
1.580466	14550.708008
1.580564	14623.329102
1.580662	14326.802734
1.580760	14675.482422
1.580858	14646.045898
1.580956	14418.650391
1.581054	14845.114258
1.581152	14407.864258
1.581250	14711.268555
1.581348	14510.989258
1.581446	14766.322266
1.581544	14712.928711
1.581642	14593.639648
1.581740	14711.036133
1.581838	14516.911133
1.581936	14340.816406
1.582034	14892.330078
1.582132	14413.883789
1.582231	14552.161133
1.582329	14678.422852
1.582427	14912.355469
1.582525	14817.139648
1.582624	14593.339844
1.582722	14480.263672
1.582820	14971.216797
1.582918	14693.689453
1.583017	14559.728516
1.583115	14419.834961
1.583213	14787.958984
1.583312	14657.035156
1.583410	14684.469727
1.583508	14738.774414
1.583607	14509.381836
1.583705	14844.341797
1.583804	14746.350586
1.583902	15075.189453
1.584001	14851.859375
1.584099	14825.521484
1.584198	14754.445312
1.584296	14901.123047
1.584395	14850.931641
1.584493	14934.928711
1.584592	14562.786133
1.584690	14539.500000
1.584789	14644.367188
1.584888	14686.625977
1.584986	14958.264648
1.585085	14631.104492
1.585184	14795.447266
1.585282	14775.121094
1.585381	14695.256836
1.585480	14978.572266
1.585578	14979.057617
1.585677	14875.392578
1.585776	14593.250977
1.585875	15010.253906
1.585974	14811.459961
1.586072	14948.759766
1.586171	14964.112305
1.586270	14866.496094
1.586369	14965.077148
1.586468	14918.011719
1.586567	14698.629883
1.586666	14815.012695
1.586764	15029.375000
1.586863	15077.359375
1.586962	15113.450195
1.587061	14852.653320
1.587160	15090.610352
1.587259	14886.291016
1.587358	15035.143555
1.587457	14937.704102
1.587556	15205.149414
1.587656	15095.850586
1.587755	15036.997070
1.587854	15061.176758
1.587953	15037.918945
1.588052	15041.342773
1.588151	15015.132812
1.588250	15110.405273
1.588350	15146.400391
1.588449	15179.419922
1.588548	15070.284180
1.588647	15280.956055
1.588747	14991.256836
1.588846	14968.041016
1.588945	15240.769531
1.589044	15155.382812
1.589144	14954.646484
1.589243	15188.788086
1.589342	15014.728516
1.589442	15287.220703
1.589541	15405.886719
1.589641	15013.138672
1.589740	15075.657227
1.589840	15002.227539
1.589939	14999.727539
1.590039	15271.947266
1.590138	15198.519531
1.590237	15396.789062
1.590337	15031.068359
1.590436	15376.898438
1.590536	15265.130859
1.590636	15020.605469
1.590735	15375.114258
1.590835	15213.250977
1.590935	15585.305664
1.591034	15255.365234
1.591134	15305.896484
1.591233	15509.708984
1.591333	15518.914062
1.591433	15413.179688
1.591533	15528.473633
1.591632	15561.238281
1.591732	15455.548828
1.591832	15585.501953
1.591932	15415.060547
1.592031	15559.696289
1.592131	15560.045898
1.592231	15731.097656
1.592331	15584.284180
1.592431	15978.877930
1.592531	15605.562500
1.592631	15773.548828
1.592731	15659.171875
1.592830	15644.799805
1.592930	15583.396484
1.593030	15683.670898
1.593130	15557.627930
1.593230	15851.794922
1.593330	15446.679688
1.593431	15702.582031
1.593531	15514.946289
1.593631	15468.314453
1.593731	15782.798828
1.593831	15689.171875
1.593931	15630.792969
1.594031	15672.200195
1.594131	15807.475586
1.594231	15863.504883
1.594332	15787.536133
1.594432	15732.119141
1.594532	15486.149414
1.594632	15600.820312
1.594733	15513.220703
1.594833	15900.375977
1.594933	15976.830078
1.595033	15930.221680
1.595134	15836.766602
1.595234	15822.409180
1.595334	16083.284180
1.595435	16007.413086
1.595535	16051.573242
1.595636	15823.553711
1.595736	15888.209961
1.595837	15993.801758
1.595937	15847.804688
1.596037	15962.140625
1.596138	16061.817383
1.596238	16035.747070
1.596339	16024.300781
1.596439	16194.057617
1.596540	16033.559570
1.596641	16013.352539
1.596741	15847.095703
1.596842	16145.274414
1.596942	16309.026367
1.597043	15932.585938
1.597144	16303.579102
1.597244	16137.410156
1.597345	16204.750977
1.597446	16111.595703
1.597546	16035.973633
1.597647	16342.468750
1.597748	16383.482422
1.597849	16296.187500
1.597950	16480.042969
1.598050	16069.219727
1.598151	16159.791992
1.598252	16317.351562
1.598353	16375.804688
1.598454	16209.949219
1.598555	16280.049805
1.598656	16420.009766
1.598757	16187.267578
1.598858	16239.869141
1.598958	16292.453125
1.599059	16406.126953
1.599160	16499.396484
1.599261	16441.367188
1.599362	16688.748047
1.599464	16441.687500
1.599565	16473.828125
1.599666	16439.097656
1.599767	16645.619141
1.599868	16262.146484
1.599969	16364.027344
1.600070	16233.468750
1.600171	16364.364258
1.600273	16631.708984
1.600374	16309.531250
1.600475	16739.367188
1.600576	16225.706055
1.600677	16707.650391
1.600779	16733.873047
1.600880	16475.771484
1.600981	16632.552734
1.601083	16505.062500
1.601184	16377.614258
1.601285	16635.804688
1.601387	16662.009766
1.601488	16569.376953
1.601589	16644.845703
1.601691	16668.136719
1.601792	16766.736328
1.601894	16816.064453
1.601995	16541.042969
1.602097	17149.195312
1.602198	16738.148438
1.602300	16723.769531
1.602401	16639.941406
1.602503	16810.761719
1.602604	16732.732422
1.602706	16813.814453
1.602808	16651.941406
1.602909	16669.394531
1.603011	16805.373047
1.603113	17056.925781
1.603214	17025.169922
1.603316	17077.220703
1.603418	16880.794922
1.603519	16808.644531
1.603621	16742.291016
1.603723	16918.521484
1.603825	16881.042969
1.603926	16788.730469
1.604028	17042.787109
1.604130	16791.765625
1.604232	17091.900391
1.604334	16878.453125
1.604436	17140.976562
1.604538	16904.521484
1.604639	16918.990234
1.604741	17135.248047
1.604843	17161.201172
1.604945	17045.935547
1.605047	17152.572266
1.605149	17045.988281
1.605251	17198.671875
1.605353	17319.626953
1.605455	17011.507812
1.605557	17187.152344
1.605659	17259.111328
1.605762	17086.419922
1.605864	16836.095703
1.605966	17305.101562
1.606068	17221.658203
1.606170	17336.689453
1.606272	17144.000000
1.606375	17322.255859
1.606477	17258.986328
1.606579	16942.816406
1.606681	17063.542969
1.606784	17233.070312
1.606886	17439.886719
1.606988	17428.347656
1.607091	17144.000000
1.607193	17474.185547
1.607295	17479.869141
1.607398	17428.144531
1.607500	17290.343750
1.607602	17554.289062
1.607705	17473.888672
1.607807	17528.324219
1.607910	17402.068359
1.608012	17250.046875
1.608115	17204.152344
1.608217	17232.796875
1.608320	17525.097656
1.608422	17393.212891
1.608525	17673.927734
1.608628	17553.519531
1.608730	17215.488281
1.608833	17390.138672
1.608935	17318.507812
1.609038	17464.457031
1.609141	17647.560547
1.609243	17484.351562
1.609346	17572.974609
1.609449	17389.806641
1.609551	17135.195312
1.609654	17526.955078
1.609757	17549.748047
1.609860	17606.835938
1.609963	17529.566406
1.610065	17598.070312
1.610168	17720.835938
1.610271	17735.003906
1.610374	17546.367188
1.610477	17651.943359
1.610580	17531.910156
1.610683	17648.873047
1.610786	17683.017578
1.610889	17688.611328
1.610992	17605.746094
1.611095	17793.939453
1.611198	17762.427734
1.611301	17636.808594
1.611404	17542.599609
1.611507	17801.951172
1.611610	17528.158203
1.611713	17542.314453
1.611816	17636.255859
1.611919	17470.894531
1.612022	17769.917969
1.612126	17627.373047
1.612229	17644.347656
1.612332	17971.662109
1.612435	17638.419922
1.612538	17794.849609
1.612642	17629.650391
1.612745	17470.197266
1.612848	17774.503906
1.612952	17859.693359
1.613055	17461.394531
1.613158	17742.800781
1.613262	17984.310547
1.613365	17702.730469
1.613468	17952.691406
1.613572	17813.283203
1.613675	18293.261719
1.613779	17977.728516
1.613882	17534.500000
1.613986	18054.035156
1.614089	18008.414062
1.614193	18187.060547
1.614296	17863.292969
1.614400	18056.089844
1.614503	18064.404297
1.614607	18058.531250
1.614710	18273.886719
1.614814	18109.175781
1.614918	17884.978516
1.615021	18015.208984
1.615125	17881.800781
1.615229	17972.312500
1.615332	17921.123047
1.615436	17844.453125
1.615540	18127.529297
1.615644	18048.017578
1.615747	17682.554688
1.615851	18019.300781
1.615955	18392.730469
1.616059	18208.513672
1.616163	18131.882812
1.616266	18026.986328
1.616370	18253.072266
1.616474	18032.234375
1.616578	18145.134766
1.616682	18170.355469
1.616786	18071.189453
1.616890	18065.324219
1.616994	18316.603516
1.617098	18107.275391
1.617202	18211.572266
1.617306	18329.955078
1.617410	17954.121094
1.617514	18109.208984
1.617618	18001.714844
1.617723	18374.068359
1.617827	17981.546875
1.617931	18429.958984
1.618035	18395.826172
1.618139	18099.392578
1.618243	18062.505859
1.618348	18372.439453
1.618452	18169.191406
1.618556	18084.392578
1.618660	18270.164062
1.618765	18210.734375
1.618869	18418.960938
1.618973	18367.974609
1.619077	18393.044922
1.619182	18204.105469
1.619286	18215.117188
1.619391	18082.568359
1.619495	18411.619141
1.619599	18386.005859
1.619704	18247.865234
1.619808	18284.173828
1.619913	18250.158203
1.620017	18067.115234
1.620122	18120.302734
1.620226	18159.417969
1.620331	18128.251953
1.620435	18248.843750
1.620540	18341.296875
1.620645	18467.429688
1.620749	18368.822266
1.620854	18289.906250
1.620959	18441.250000
1.621063	18404.455078
1.621168	18631.511719
1.621273	18423.511719
1.621377	18176.296875
1.621482	18456.578125
1.621587	18405.783203
1.621692	18032.498047
1.621796	18152.832031
1.621901	18542.261719
1.622006	18337.318359
1.622111	18126.839844
1.622216	18401.189453
1.622321	17975.046875
1.622426	18058.851562
1.622531	18389.083984
1.622635	18153.568359
1.622741	18178.505859
1.622846	18402.179688
1.622950	18113.601562
1.623055	18575.064453
1.623160	18143.865234
1.623266	17919.816406
1.623371	18148.935547
1.623476	18260.527344
1.623581	18374.876953
1.623686	18422.095703
1.623791	18312.779297
1.623896	18237.033203
1.624001	18463.068359
1.624107	18222.500000
1.624212	18434.496094
1.624317	18073.927734
1.624422	18545.546875
1.624527	18352.583984
1.624633	18346.695312
1.624738	18516.626953
1.624843	18187.041016
1.624949	18217.449219
1.625054	18390.103516
1.625159	18175.046875
1.625265	18347.648438
1.625370	18297.156250
1.625476	18062.710938
1.625581	18107.041016
1.625686	18170.861328
1.625792	18137.146484
1.625897	18298.435547
1.626003	18351.048828
1.626108	18325.673828
1.626214	18161.097656
1.626320	18297.216797
1.626425	18068.687500
1.626531	18549.835938
1.626636	18143.271484
1.626742	18115.171875
1.626848	18003.640625
1.626953	17861.556641
1.627059	18247.796875
1.627165	18183.558594
1.627270	18369.490234
1.627376	18163.521484
1.627482	17940.949219
1.627588	18112.937500
1.627693	18093.212891
1.627799	17831.884766
1.627905	17856.638672
1.628011	18170.107422
1.628117	18153.158203
1.628223	18161.193359
1.628329	17950.015625
1.628434	17694.521484
1.628540	17938.404297
1.628646	18146.148438
1.628752	18026.621094
1.628858	17821.187500
1.628964	17740.560547
1.629070	17682.132812
1.629176	18116.966797
1.629282	17748.191406
1.629388	17739.650391
1.629495	17753.269531
1.629601	17606.273438
1.629707	17877.396484
1.629813	17877.142578
1.629919	17683.146484
1.630025	17829.589844
1.630131	17619.064453
1.630238	17812.496094
1.630344	17563.322266
1.630450	17615.660156
1.630556	17615.447266
1.630663	17899.972656
1.630769	17805.734375
1.630875	17432.408203
1.630982	17379.724609
1.631088	17608.845703
1.631194	17583.769531
1.631301	17533.847656
1.631407	17541.925781
1.631514	17641.105469
1.631620	17558.074219
1.631727	17400.554688
1.631833	17651.470703
1.631940	17598.824219
1.632046	17504.820312
1.632153	17474.279297
1.632259	17377.568359
1.632366	17451.824219
1.632473	17211.808594
1.632579	17302.603516
1.632686	17385.097656
1.632792	17260.929688
1.632899	17340.648438
1.633006	17345.976562
1.633113	17387.101562
1.633219	17425.457031
1.633326	17122.451172
1.633433	17273.683594
1.633540	16990.068359
1.633646	17174.289062
1.633753	17322.681641
1.633860	17171.224609
1.633967	17003.316406
1.634074	16887.705078
1.634181	16981.064453
1.634287	17151.351562
1.634394	16782.943359
1.634501	16879.017578
1.634608	16977.806641
1.634715	16933.730469
1.634822	16571.097656
1.634929	16765.990234
1.635036	16796.095703
1.635143	16782.271484
1.635251	16655.929688
1.635357	16474.750000
1.635465	16474.703125
1.635572	16633.750000
1.635679	16647.386719
1.635786	16422.457031
1.635893	16537.564453
1.636001	16625.220703
1.636108	16438.777344
1.636215	16641.509766
1.636322	16463.343750
1.636429	16238.668945
1.636537	16449.546875
1.636644	16301.625000
1.636751	16337.192383
1.636859	16046.990234
1.636966	16296.074219
1.637074	16178.376953
1.637181	16140.066406
1.637288	16252.225586
1.637396	16293.232422
1.637503	16159.205078
1.637611	16066.236328
1.637718	16183.797852
1.637826	16049.855469
1.637933	15946.019531
1.638041	15806.698242
1.638148	15446.138672
1.638256	16022.583008
1.638363	15626.606445
1.638471	15501.083008
1.638579	15517.564453
1.638686	15785.161133
1.638794	15654.214844
1.638902	15676.117188
1.639009	15310.609375
1.639117	15534.413086
1.639225	15586.323242
1.639333	15436.431641
1.639440	15542.866211
1.639548	15551.131836
1.639656	15523.964844
1.639764	15366.008789
1.639872	15379.748047
1.639979	15118.355469
1.640087	15388.146484
1.640195	15017.916016
1.640303	15181.448242
1.640411	15200.648438
1.640519	14866.019531
1.640627	15064.869141
1.640735	15084.078125
1.640843	15092.398438
1.640951	14913.044922
1.641059	14777.262695
1.641167	14755.720703
1.641275	14736.904297
1.641384	14641.989258
1.641492	14919.412109
1.641600	14653.320312
1.641708	14664.415039
1.641816	14746.125977
1.641924	14765.347656
1.642033	14477.738281
1.642141	14573.012695
1.642249	14361.533203
1.642357	14616.912109
1.642466	14413.636719
1.642574	14240.272461
1.642682	14327.365234
1.642791	14297.811523
1.642899	14295.381836
1.643007	14230.597656
1.643116	14260.708008
1.643224	14060.441406
1.643333	14052.632812
1.643441	13952.711914
1.643550	13779.685547
1.643658	13931.719727
1.643767	13821.037109
1.643875	13994.670898
1.643984	13505.038086
1.644092	14201.020508
1.644201	13630.337891
1.644309	13822.823242
1.644418	13747.435547
1.644527	13455.699219
1.644635	13704.902344
1.644744	13591.718750
1.644853	13421.804688
1.644961	13322.220703
1.645070	13322.658203
1.645179	13433.873047
1.645288	13161.444336
1.645397	13380.686523
1.645505	13121.861328
1.645614	12930.625000
1.645723	12982.417969
1.645832	13063.883789
1.645941	13050.866211
1.646050	12919.131836
1.646159	12827.907227
1.646268	12863.488281
1.646376	12553.858398
1.646485	12748.559570
1.646594	12673.599609
1.646703	12569.015625
1.646812	12502.196289
1.646922	12739.885742
1.647031	12508.718750
1.647140	12608.948242
1.647249	12318.631836
1.647358	12426.937500
1.647467	12537.897461
1.647576	12086.231445
1.647685	12183.754883
1.647795	12060.590820
1.647904	12063.917969
1.648013	12247.473633
1.648122	12132.428711
1.648232	11912.548828
1.648341	12020.753906
1.648450	12016.019531
1.648560	12062.351562
1.648669	11598.093750
1.648778	11872.856445
1.648888	11537.731445
1.648997	11747.950195
1.649107	11625.106445
1.649216	11521.098633
1.649325	11564.772461
1.649435	11348.080078
1.649544	11313.944336
1.649654	11306.651367
1.649763	11323.503906
1.649873	11203.558594
1.649983	11207.012695
1.650092	11374.025391
1.650202	10889.538086
1.650311	11319.222656
1.650421	10958.184570
1.650531	11082.252930
1.650640	10898.191406
1.650750	10794.549805
1.650860	10749.861328
1.650970	10630.212891
1.651079	10896.119141
1.651189	10856.788086
1.651299	10643.512695
1.651409	10521.287109
1.651518	10575.675781
1.651628	10608.646484
1.651738	10537.302734
1.651848	10492.722656
1.651958	10474.892578
1.652068	10502.510742
1.652178	10361.744141
1.652288	10210.335938
1.652398	10128.443359
1.652508	10201.511719
1.652618	9970.083008
1.652728	9955.031250
1.652838	9862.557617
1.652948	9948.966797
1.653058	9835.172852
1.653168	9838.832031
1.653278	9650.389648
1.653389	9811.467773
1.653499	9708.442383
1.653609	9754.786133
1.653719	9665.135742
1.653829	9530.197266
1.653940	9613.862305
1.654050	9454.994141
1.654160	9365.455078
1.654270	9539.678711
1.654381	9474.125977
1.654491	9477.835938
1.654601	9159.368164
1.654712	9288.250000
1.654822	9023.157227
1.654933	9061.535156
1.655043	8945.575195
1.655154	9013.216797
1.655264	8884.003906
1.655374	8967.588867
1.655485	8811.836914
1.655596	8680.065430
1.655706	8681.241211
1.655817	8685.074219
1.655927	8478.990234
1.656038	8684.765625
1.656149	8662.032227
1.656259	8596.814453
1.656370	8515.685547
1.656480	8384.141602
1.656591	8350.856445
1.656702	8423.741211
1.656813	8462.105469
1.656923	8190.046387
1.657034	8191.300293
1.657145	8311.900391
1.657256	8071.826172
1.657367	7948.488770
1.657477	8034.607422
1.657588	7935.171387
1.657699	7872.868164
1.657810	7943.058105
1.657921	8039.713379
1.658032	7950.937500
1.658143	7848.951172
1.658254	7707.284668
1.658365	7602.727051
1.658476	7717.884277
1.658587	7526.032227
1.658698	7625.287598
1.658809	7777.416016
1.658920	7556.557617
1.659031	7393.952637
1.659142	7456.145020
1.659254	7386.137695
1.659365	7458.881836
1.659476	7280.547852
1.659587	7321.578613
1.659698	7198.805176
1.659810	7036.454102
1.659921	7106.554199
1.660032	7152.866211
1.660143	7024.924805
1.660255	7094.989746
1.660366	6969.740723
1.660478	7147.973633
1.660589	6877.659668
1.660700	6947.700684
1.660812	6817.287109
1.660923	6829.304688
1.661035	6770.136719
1.661146	6700.444824
1.661258	6688.756836
1.661369	6592.752441
1.661481	6507.318848
1.661592	6577.325684
1.661704	6678.912109
1.661815	6625.105469
1.661927	6344.900879
1.662039	6401.725586
1.662150	6374.311523
1.662262	6307.435547
1.662374	6190.594727
1.662485	6389.451660
1.662597	6141.134766
1.662709	6205.822754
1.662821	6202.131348
1.662933	6180.039551
1.663044	6123.788574
1.663156	5988.723145
1.663268	6155.847168
1.663380	6112.762695
1.663492	5828.060547
1.663604	5827.062500
1.663715	6028.230957
1.663827	5872.318359
1.663939	5868.687500
1.664051	5707.606934
1.664163	6045.091309
1.664275	5815.829590
1.664387	5570.909668
1.664499	5475.548828
1.664611	5666.012695
1.664724	5657.177246
1.664836	5546.124023
1.664948	5589.723633
1.665060	5334.611816
1.665172	5509.217285
1.665284	5484.700195
1.665397	5591.130859
1.665509	5299.535645
1.665621	5421.668457
1.665733	5313.423828
1.665846	5275.875000
1.665958	5078.729004
1.666070	5260.985840
1.666183	5194.692383
1.666295	5201.647461
1.666407	5174.607910
1.666520	5105.748535
1.666632	5052.596191
1.666744	5096.157715
1.666857	5087.444824
1.666969	4971.621582
1.667082	5054.355469
1.667194	4975.139648
1.667307	4919.451660
1.667420	4814.178711
1.667532	4902.102539
1.667645	4869.943848
1.667757	4869.108398
1.667870	4894.362305
1.667983	4663.975586
1.668095	4702.296387
1.668208	4811.008301
1.668321	4687.646973
1.668433	4778.077148
1.668546	4633.913086
1.668659	4674.811035
1.668772	4637.533691
1.668885	4657.577148
1.668997	4464.047363
1.669110	4541.401855
1.669223	4407.840332
1.669336	4500.795898
1.669449	4487.010254
1.669562	4389.957520
1.669675	4389.203613
1.669788	4266.187500
1.669901	4322.674316
1.670014	4285.526367
1.670127	4331.590332
1.670240	4390.636230
1.670353	4272.922363
1.670466	4261.793945
1.670579	4214.294434
1.670692	4159.017578
1.670805	4212.847168
1.670918	4069.295410
1.671031	4213.996094
1.671145	4132.796875
1.671258	4087.963135
1.671371	4009.408203
1.671484	4091.747803
1.671598	3935.393311
1.671711	3942.498291
1.671824	3970.347168
1.671937	4021.522217
1.672051	3878.248535
1.672164	3869.806152
1.672278	3946.886719
1.672391	3855.520752
1.672504	3730.507812
1.672618	3960.393066
1.672731	3778.430664
1.672845	3837.334961
1.672958	3865.152588
1.673072	3742.833008
1.673185	3827.592285
1.673299	3638.045654
1.673413	3818.515137
1.673526	3722.153320
1.673640	3649.100342
1.673753	3573.486572
1.673867	3588.383789
1.673981	3603.275879
1.674094	3600.071777
1.674208	3516.765869
1.674322	3588.499512
1.674436	3525.888672
1.674549	3558.856201
1.674663	3542.750977
1.674777	3428.545166
1.674891	3500.231445
1.675005	3419.623047
1.675119	3473.223145
1.675233	3459.725830
1.675346	3337.893311
1.675460	3376.004883
1.675574	3349.637695
1.675688	3271.715820
1.675802	3338.174072
1.675916	3265.435059
1.676030	3277.757324
1.676144	3277.193359
1.676258	3302.388916
1.676373	3193.648438
1.676487	3223.999512
1.676601	3251.765625
1.676715	3132.792969
1.676829	3075.631104
1.676943	3208.913574
1.677058	3097.727783
1.677172	3066.325439
1.677286	3176.392334
1.677400	3047.268555
1.677515	3033.888428
1.677629	2958.817139
1.677743	3091.958252
1.677858	3070.867676
1.677972	3057.491943
1.678086	2977.330078
1.678201	2945.996094
1.678315	2981.440430
1.678429	2903.900391
1.678544	3003.517334
1.678658	3046.633057
1.678773	2907.531982
1.678887	2955.781006
1.679002	2906.530273
1.679117	2826.517578
1.679231	2864.497314
1.679346	2730.674805
1.679461	2791.729980
1.679575	2834.822021
1.679690	2783.079590
1.679804	2669.861084
1.679919	2869.221680
1.680034	2786.763428
1.680149	2647.993164
1.680263	2678.262451
1.680378	2726.441406
1.680493	2708.054199
1.680608	2625.694092
1.680723	2612.447754
1.680837	2686.187256
1.680952	2529.696289
1.681067	2621.326172
1.681182	2549.279297
1.681297	2620.421875
1.681412	2614.857910
1.681527	2619.518066
1.681642	2557.741699
1.681757	2516.424561
1.681872	2452.132812
1.681987	2589.618408
1.682102	2492.141602
1.682217	2432.992920
1.682333	2414.705322
1.682448	2475.539307
1.682563	2454.698730
1.682678	2469.582520
1.682793	2379.878906
1.682908	2341.213135
1.683024	2430.055420
1.683139	2401.592041
1.683254	2266.079346
1.683369	2367.631348
1.683485	2357.030273
1.683600	2280.192139
1.683715	2289.987549
1.683831	2315.060547
1.683946	2396.145020
1.684062	2288.801758
1.684177	2270.587891
1.684293	2272.740967
1.684408	2208.732910
1.684524	2277.044434
1.684639	2269.020020
1.684755	2151.635986
1.684870	2158.893066
1.684986	2237.335205
1.685101	2175.941162
1.685217	2071.361816
1.685332	2198.059326
1.685448	2139.244141
1.685564	2240.483887
1.685680	2217.238770
1.685795	2094.966553
1.685911	2137.766113
1.686027	2089.165771
1.686142	2114.185059
1.686258	2047.842163
1.686374	2090.619873
1.686490	2064.891357
1.686606	2135.550293
1.686722	2056.570068
1.686838	2038.466797
1.686953	1989.949951
1.687069	1979.467896
1.687185	2017.136963
1.687301	2034.523804
1.687417	2067.104004
1.687533	2003.427002
1.687649	1972.692505
1.687766	1843.224487
1.687882	1906.192261
1.687998	1948.890015
1.688114	1930.838867
1.688230	2001.349121
1.688346	1990.884155
1.688462	1818.549072
1.688578	1889.041992
1.688695	1843.203979
1.688811	1815.077515
1.688927	1824.873657
1.689043	1867.518433
1.689160	1854.562012
1.689276	1816.347900
1.689392	1853.920288
1.689509	1808.143311
1.689625	1812.880249
1.689742	1810.041992
1.689858	1809.728760
1.689974	1645.382080
1.690091	1735.930908
1.690207	1841.584595
1.690324	1760.552734
1.690440	1830.859741
1.690557	1772.550293
1.690673	1709.219116
1.690790	1645.909790
1.690907	1726.268066
1.691023	1698.252808
1.691140	1702.997192
1.691257	1629.657471
1.691373	1689.815674
1.691490	1702.112671
1.691607	1714.405273
1.691723	1696.489014
1.691840	1703.744995
1.691957	1610.351440
1.692074	1675.481689
1.692191	1665.130249
1.692307	1591.910645
1.692424	1606.721436
1.692541	1578.789062
1.692658	1540.812134
1.692775	1600.860229
1.692892	1577.968628
1.693009	1514.888794
1.693126	1567.374512
1.693243	1564.591431
1.693360	1574.364014
1.693477	1506.307373
1.693594	1586.368774
1.693711	1523.352661
1.693828	1482.941284
1.693945	1618.157959
1.694062	1517.543945
1.694180	1487.186035
1.694297	1512.002808
1.694414	1449.064819
1.694531	1491.425781
1.694649	1438.537720
1.694766	1495.920044
1.694883	1428.017700
1.695000	1375.167969
1.695118	1497.646240
1.695235	1404.738892
1.695352	1557.212158
1.695470	1439.295288
1.695587	1474.083252
1.695705	1411.271240
1.695822	1393.513672
1.695940	1478.318970
1.696057	1405.534912
1.696175	1417.793579
1.696292	1442.548462
1.696410	1394.804688
1.696527	1424.553345
1.696645	1356.838989
1.696762	1401.573730
1.696880	1411.322144
1.696998	1373.614990
1.697115	1315.944458
1.697233	1333.192261
1.697351	1352.930298
1.697469	1325.242188
1.697586	1302.554321
1.697704	1399.628540
1.697822	1361.968750
1.697940	1274.441772
1.698058	1326.585693
1.698175	1303.916992
1.698293	1248.850830
1.698411	1325.894653
1.698529	1280.811157
1.698647	1240.725952
1.698765	1282.857178
1.698883	1262.709961
1.699001	1289.881958
1.699119	1237.374390
1.699237	1202.309937
1.699355	1259.343994
1.699473	1284.009033
1.699591	1206.659302
1.699710	1181.574341
1.699828	1191.317383
1.699946	1208.516968
1.700064	1195.875854
1.700182	1198.153809
1.700300	1135.811401
1.700419	1185.312622
1.700537	1195.044678
1.700655	1155.091797
1.700774	1189.661987
1.700892	1184.488770
1.701010	1117.247925
1.701129	1194.006226
1.701247	1196.280518
1.701365	1126.591187
1.701484	1203.307739
1.701602	1151.005615
1.701721	1217.770386
1.701839	1195.240845
1.701958	1197.512207
1.702076	1152.683960
1.702195	1145.048096
1.702314	1072.986084
1.702432	1070.321899
1.702551	1080.044312
1.702669	1055.089111
1.702788	1101.955322
1.702907	1111.667114
1.703025	1054.538452
1.703144	1098.905151
1.703263	1091.290161
1.703382	1066.358765
1.703501	1063.699463
1.703619	1142.659668
1.703738	1095.476440
1.703857	1077.978760
1.703976	1082.735107
1.704095	1035.586914
1.704214	1045.291138
1.704333	993.224365
1.704451	1077.040894
1.704571	995.348389
1.704690	1051.971680
1.704808	1039.443604
1.704928	1012.108459
1.705047	1088.444092
1.705166	1056.174561
1.705285	1004.177979
1.705404	984.268372
1.705523	959.432861
1.705642	1040.643066
1.705761	973.891968
1.705881	976.187439
1.706000	1020.381775
1.706119	1007.882690
1.706238	992.924133
1.706357	995.214539
1.706477	1054.152466
1.706596	994.867737
1.706715	970.073242
1.706835	1001.906128
1.706954	945.122620
1.707074	979.409485
1.707193	917.728760
1.707313	1008.587708
1.707432	976.437866
1.707552	961.513000
1.707671	912.171692
1.707791	867.764099
1.707910	904.480225
1.708030	923.981689
1.708149	911.535767
1.708269	862.245972
1.708389	923.498413
1.708508	842.299805
1.708628	979.647278
1.708748	932.834717
1.708867	937.580811
1.708987	932.509338
1.709107	871.008057
1.709227	934.637146
1.709346	909.947205
1.709466	926.954285
1.709586	848.333984
1.709706	860.442993
1.709826	857.841858
1.709946	901.802063
1.710066	889.394104
1.710186	899.037659
1.710306	830.301331
1.710426	832.605225
1.710546	822.666321
1.710666	895.962219
1.710786	898.253418
1.710906	787.975769
1.711026	797.625061
1.711146	802.378357
1.711266	836.480164
1.711386	809.434448
1.711506	765.283264
1.711627	836.042053
1.711747	806.566406
1.711867	821.087830
1.711987	789.181702
1.712108	820.801086
1.712228	857.294250
1.712348	791.210327
1.712469	791.072083
1.712589	783.610474
1.712709	812.762329
1.712830	827.262146
1.712950	807.598633
1.713071	829.412537
1.713191	829.267639
1.713312	797.421021
1.713432	763.147278
1.713553	802.017822
1.713673	772.629883
1.713794	796.863770
1.713915	750.431641
1.714035	733.248169
1.714156	725.813171
1.714276	754.908569
1.714397	781.559021
1.714518	749.776001
1.714639	761.814453
1.714759	732.479431
1.714880	802.910156
1.715001	795.471863
1.715122	797.764954
1.715243	785.466553
1.715364	753.721497
1.715484	724.418457
1.715605	721.861267
1.715726	690.143921
1.715847	724.038452
1.715968	760.350342
1.716089	774.790161
1.716210	767.369446
1.716331	752.667480
1.716452	725.832886
1.716573	655.319702
1.716694	732.859009
1.716815	742.435791
1.716936	671.956665
1.717058	703.369385
1.717179	729.921143
1.717300	695.849548
1.717421	717.544983
1.717542	753.775146
1.717664	695.484192
1.717785	722.013977
1.717906	673.438782
1.718028	702.385071
1.718149	675.624573
1.718270	653.715759
1.718392	663.284302
1.718513	684.951050
1.718634	675.151489
1.718756	638.741150
1.718877	728.134155
1.718999	684.471375
1.719120	667.424072
1.719242	652.800476
1.719364	623.677856
1.719485	674.324219
1.719607	637.958435
1.719728	645.094910
1.719850	647.397583
1.719972	615.886047
1.720093	673.733704
1.720215	678.444458
1.720337	663.841736
1.720459	615.454468
1.720580	666.022217
1.720702	603.175293
1.720824	629.604614
1.720946	605.375671
1.721068	612.503906
1.721189	638.917603
1.721311	588.183289
1.721433	645.924133
1.721555	602.435547
1.721677	604.739197
1.721799	626.313293
1.721921	599.710205
1.722043	650.174133
1.722165	642.837280
1.722287	604.209167
1.722409	584.848938
1.722531	563.089111
1.722654	575.020020
1.722776	606.190918
1.722898	620.515137
1.723020	584.336182
1.723142	567.403870
1.723265	588.938843
1.723387	579.221863
1.723509	571.911255
1.723632	593.434021
1.723754	552.493408
1.723876	600.430908
1.723998	581.115112
1.724121	602.621094
1.724243	576.110229
1.724366	619.209839
1.724488	602.303833
1.724611	561.411743
1.724733	604.491150
1.724856	546.824524
1.724978	573.105774
1.725101	558.620117
1.725223	613.655090
1.725346	536.853882
1.725469	524.778381
1.725591	546.248657
1.725714	565.315979
1.725837	543.661865
1.725959	557.933777
1.726082	541.076721
1.726205	624.762024
1.726328	586.359436
1.726450	552.756042
1.726573	562.228821
1.726696	521.465271
1.726819	511.807190
1.726942	475.849213
1.727065	533.144348
1.727188	528.269958
1.727311	532.957031
1.727434	525.694763
1.727557	544.715210
1.727680	520.732666
1.727803	511.088074
1.727926	513.386047
1.728049	513.295837
1.728172	525.140625
1.728295	508.342194
1.728418	532.114441
1.728541	536.792358
1.728665	510.459412
1.728788	510.369659
1.728911	493.588501
1.729034	507.806091
1.729157	543.471497
1.729281	543.375916
1.729404	550.428772
1.729527	497.919373
1.729651	514.505615
1.729774	540.612122
1.729898	490.513245
1.730021	490.426971
1.730145	471.298309
1.730268	516.433044
1.730392	485.409210
1.730515	466.291504
1.730639	561.354187
1.730762	520.825989
1.730886	518.356567
1.731009	487.359589
1.731133	489.650757
1.731256	477.681946
1.731380	525.119995
1.731504	527.403259
1.731628	510.683502
1.731751	460.721680
1.731875	465.389435
1.731999	481.925598
1.732123	479.467133
1.732246	443.784973
1.732370	467.434479
1.732494	474.469177
1.732618	474.385620
1.732742	469.559052
1.732866	514.527100
1.732990	459.910950
1.733114	462.200165
1.733238	459.748901
1.733362	457.298492
1.733486	443.003906
1.733610	442.925842
1.733734	449.952301
1.733858	442.769775
1.733982	428.487732
1.734106	468.649811
1.734231	428.336700
1.734355	466.118561
1.734479	458.939392
1.734603	463.588989
1.734727	496.614929
1.734852	461.061157
1.734976	439.703888
1.735100	413.626953
1.735225	430.096191
1.735349	465.461578
1.735473	432.306854
1.735598	436.954437
1.735722	406.177887
1.735847	406.106262
1.735971	432.001984
1.736096	403.602783
1.736220	427.129913
1.736345	445.929932
1.736469	412.825226
1.736594	441.055420
1.736718	389.097900
1.736843	429.111053
1.736968	391.317963
1.737092	419.531952
1.737217	428.883942
1.737342	459.437408
1.737467	414.598541
1.737591	426.301666
1.737716	433.290955
1.737841	402.606934
1.737966	444.908051
1.738091	400.111206
1.738215	388.274689
1.738340	451.730774
1.738465	385.785248
1.738590	423.348053
1.738715	395.055084
1.738840	413.794159
1.738965	425.474518
1.739090	427.749664
1.739215	418.274689
1.739340	394.706390
1.739465	401.683746
1.739590	378.126678
1.739716	408.586456
1.739841	380.340881
1.739966	373.231598
1.740091	398.982147
1.740216	403.604736
1.740342	384.764435
1.740467	363.585052
1.740592	401.045532
1.740718	365.801422
1.740843	365.736786
1.740968	393.800781
1.741094	351.545685
1.741219	365.542908
1.741344	346.735809
1.741470	388.837646
1.741595	377.058990
1.741721	398.066437
1.741846	372.243378
1.741972	362.814606
1.742097	411.897278
1.742223	332.267456
1.742349	327.529694
1.742474	362.558044
1.742600	385.880615
1.742725	353.076782
1.742851	383.406281
1.742977	371.651337
1.743103	355.226471
1.743228	357.500244
1.743354	366.781738
1.743480	341.023315
1.743606	371.322693
1.743732	315.218201
1.743858	357.184082
1.743983	357.120880
1.744109	333.720581
1.744235	359.327789
1.744361	347.599762
1.744487	340.540833
1.744613	359.137024
1.744739	359.073456
1.744865	356.678650
1.744991	368.269623
1.745117	351.891571
1.745244	358.819244
1.745370	358.755707
1.745496	358.692200
1.745622	330.683594
1.745748	360.893494
1.745874	337.550262
1.746001	325.852875
1.746127	344.412048
1.746253	351.331116
1.746380	339.637482
1.746506	325.622070
1.746632	348.819000
1.746759	348.757202
1.746885	332.422943
1.747012	353.282074
1.747138	295.124176
1.747264	346.186676
1.747391	353.094299
1.747517	313.547913
1.747644	348.324829
1.747771	306.471527
1.747897	345.880005
1.748024	327.251251
1.748150	352.718964
1.748277	322.495026
1.748404	338.675751
1.748530	347.892822
1.748657	317.685791
1.748784	296.763275
1.748911	326.845337
1.749037	324.469757
1.749164	340.632812
1.749291	312.770569
1.749418	296.500244
1.749545	264.023682
1.749672	324.182098
1.749799	319.494263
1.749925	326.381866
1.750053	349.467529
1.750180	319.324249
1.750306	333.148804
1.750434	293.766602
1.750561	316.841583
1.750688	321.409973
1.750815	286.674561
1.750942	295.869598
1.751069	314.305664
1.751196	279.589966
1.751323	279.540344
1.751451	295.659607
1.751578	290.988251
1.751705	277.082458
1.751832	288.576324
1.751960	346.230103
1.752087	336.937469
1.752214	327.648132
1.752342	313.748108
1.752469	320.612091
1.752596	255.982880
1.752724	306.663757
1.752851	306.609283
1.752979	290.420380
1.753106	294.977814
1.753234	292.621307
1.753361	285.658234
1.753489	287.910767
1.753617	267.133728
1.753744	285.506012
1.753872	296.965576
1.754000	253.181458
1.754127	289.956299
1.754255	301.408936
1.754383	303.655792
1.754511	287.501709
1.754638	250.656937
1.754766	252.911575
1.754894	294.244812
1.755022	305.684387
1.755150	287.246277
1.755278	268.814697
1.755405	271.064056
1.755533	261.828888
1.755661	270.967682
1.755789	291.582855
1.755917	261.689240
1.756045	282.298706
1.756173	268.480255
1.756302	298.258362
1.756430	259.209229
1.756558	247.695709
1.756686	254.530853
1.756814	243.022263
1.756942	288.824127
1.757071	270.437958
1.757199	274.972717
1.757327	304.707184
1.757455	274.874847
1.757583	263.374878
1.757712	249.589142
1.757840	263.281128
1.757969	260.945251
1.758097	254.033066
1.758225	251.699661
1.758354	263.093719
1.758482	258.472137
1.758611	256.139160
1.758739	235.514618
1.758868	258.334106
1.758996	267.431030
1.759125	255.956772
1.759254	253.626266
1.759382	253.581100
1.759511	264.956482
1.759640	242.072281
1.759768	271.711975
1.759897	228.288712
1.760026	251.072861
1.760154	246.463974
1.760283	241.856735
1.760412	244.094894
1.760541	262.298248
1.760670	264.531952
1.760799	241.684387
1.760927	259.878387
1.761056	248.435944
1.761185	259.785767
1.761314	218.727966
1.761443	243.747101
1.761572	230.038025
1.761701	227.719818
1.761830	241.339966
1.761960	209.427536
1.762089	245.805878
1.762218	200.250565
1.762347	259.369232
1.762476	254.773453
1.762605	247.904953
1.762734	213.751465
1.762864	247.816528
1.762993	247.772324
1.763122	243.182663
1.763252	249.956268
1.763381	236.280136
1.763510	220.337341
1.763640	224.840256
1.763769	215.717300
1.763898	183.894562
1.764028	224.719925
1.764158	251.913742
1.764287	247.330597
1.764416	276.779327
1.764546	220.022980
1.764676	235.858826
1.764805	238.084198
1.764935	247.109940
1.765064	217.599258
1.765194	213.027908
1.765324	222.053268
1.765454	228.809952
1.765583	215.178864
1.765713	228.728256
1.765843	244.537018
1.765973	219.591248
1.766102	215.025192
1.766232	253.458099
1.766362	217.210999
1.766492	203.598938
1.766622	239.751465
1.766752	201.264786
1.766882	205.750824
1.767012	210.235260
1.767142	230.539413
1.767272	235.017792
1.767402	234.975784
1.767532	216.861969
1.767662	210.047485
1.767792	207.751770
1.767922	225.776779
1.768052	187.361237
1.768183	194.098618
1.768313	207.603271
1.768443	239.152298
1.768573	191.738785
1.768704	193.959854
1.768834	243.533936
1.768964	189.381409
1.769095	200.618240
1.769225	189.313690
1.769356	198.293152
1.769486	198.257690
1.769616	213.989899
1.769747	207.195251
1.769877	184.641006
1.770008	204.869812
1.770139	168.818542
1.770269	218.299591
1.770400	171.008255
1.770530	188.975296
1.770661	182.193573
1.770791	191.156570
1.770922	197.867859
1.771053	197.832443
1.771184	177.567795
1.771314	197.761627
1.771445	213.454453
1.771576	193.197861
1.771707	197.655441
1.771838	170.671860
1.771968	204.320511
1.772099	195.304413
1.772230	186.291534
1.772361	181.770035
1.772492	177.250137
1.772623	179.461655
1.772754	204.101074
1.772885	201.822052
1.773016	181.607315
1.773147	179.333115
1.773278	199.472351
1.773410	215.122650
1.773541	188.198593
1.773672	183.684753
1.773803	181.412186
1.773934	185.858185
1.774066	181.347183
1.774197	176.837769
1.774328	176.806076
1.774459	179.012039
1.774591	192.403458
1.774722	190.132111
1.774854	147.605530
1.774985	190.063950
1.775116	183.322937
1.775248	165.408112
1.775379	167.613297
1.775511	154.176590
1.775643	169.787247
1.775774	183.158646
1.775906	180.892548
1.776037	200.955673
1.776169	167.433029
1.776300	185.259323
1.776432	176.299530
1.776564	182.961624
1.776695	185.159637
1.776827	165.052475
1.776959	171.712967
1.777091	178.371078
1.777223	178.339066
1.777354	171.620544
1.777486	160.447556
1.777618	184.927185
1.777750	142.568863
1.777882	178.179092
1.778014	180.373947
1.778146	138.039230
1.778278	178.083160
1.778410	158.020432
1.778542	164.667786
1.778674	173.537582
1.778806	166.833099
1.778938	166.803131
1.779071	173.444107
1.779203	155.627014
1.779335	146.707687
1.779467	166.683334
1.779599	175.541580
1.779732	142.185364
1.779864	173.257278
1.779996	186.551239
1.780129	162.092789
1.780261	177.604019
1.780393	137.618378
1.780526	157.566925
1.780658	159.757462
1.780791	168.602570
1.780923	146.391708
1.781056	150.800705
1.781188	146.339096
1.781321	139.662201
1.781453	168.451111
1.781586	144.044128
1.781718	155.096558
1.781851	170.575531
1.781984	155.040787
1.782116	155.012909
1.782249	166.055389
1.782382	152.743484
1.782515	161.569122
1.782647	146.049927
1.782780	172.573410
1.782913	157.057800
1.783046	157.029541
1.783179	154.790009
1.783312	137.075058
1.783445	128.208435
1.783578	148.076202
1.783711	143.630173
1.783844	167.906601
1.783977	159.040787
1.784110	178.888687
1.784243	154.567337
1.784376	136.877853
1.784509	145.682465
1.784642	163.311539
1.784775	150.043045
1.784909	150.016037
1.785042	127.931824
1.785175	160.988647
1.785308	141.115326
1.785442	167.544266
1.785575	145.472763
1.785708	154.261520
1.785842	147.623718
1.785975	143.191254
1.786108	123.342545
1.786242	158.554703
1.786375	132.105118
1.786509	138.685394
1.786642	140.861374
1.786776	132.033737
1.786909	134.210114
1.787043	123.187088
1.787176	160.554230
1.787310	142.933487
1.787444	142.907730
1.787578	138.485611
1.787711	153.845154
1.787845	151.620041
1.787979	140.607727
1.788112	125.206184
1.788246	131.772232
1.788380	107.594582
1.788514	127.333893
1.788648	155.846146
1.788782	131.677216
1.788916	118.488121
1.789049	118.466759
1.789183	140.379730
1.789317	127.196182
1.789451	140.329086
1.789585	157.841751
1.789720	129.319214
1.789854	153.401901
1.789988	127.081497
1.790122	144.583893
1.790256	129.225922
1.790390	131.392471
1.790524	159.832001
1.790659	135.723221
1.790793	137.887421
1.790927	148.804001
1.791062	133.461853
1.791196	131.250259
1.791330	137.787903
1.791465	133.389587
1.791599	161.787674
1.791733	139.899216
1.791868	144.245010
1.792002	131.108154
1.792137	124.530258
1.792271	148.535583
1.792406	126.669235
1.792541	137.564148
1.792675	135.356140
1.792810	126.600616
1.792944	133.124863
1.793079	111.281013
1.793214	148.347885
1.793348	126.509155
1.793483	135.209488
1.793618	104.659401
1.793753	122.080574
1.793887	122.058517
1.794022	139.470230
1.794157	119.835571
1.794292	139.419830
1.794427	124.148338
1.794562	132.836487
1.794697	115.394447
1.794832	124.081024
1.794967	137.117401
1.795102	137.092606
1.795237	132.716461
1.795372	145.744171
1.795507	106.569748
1.795642	117.422974
1.795777	119.575844
1.795913	139.117645
1.796048	136.919159
1.796183	130.375610
1.796318	143.387222
1.796454	115.123459
1.796589	112.930885
1.796724	99.882324
1.796860	99.864250
1.796995	112.869598
1.797130	115.019348
1.797266	130.187027
1.797401	132.332855
1.797537	101.942924
1.797672	121.441925
1.797808	138.765656
1.797943	119.230148
1.798079	112.706276
1.798215	130.022156
1.798350	116.998756
1.798486	108.312569
1.798621	112.624672
1.798757	127.762550
1.798893	123.409264
1.799029	114.728188
1.799164	121.200279
1.799300	119.014427
1.799436	118.992874
1.799572	116.808205
1.799708	129.763382
