#Wave		#Intensity
1.300042	44.852184
1.300095	106.523933
1.300147	61.661465
1.300200	50.441875
1.300252	28.018589
1.300304	72.836182
1.300357	22.407396
1.300409	28.004574
1.300462	61.599789
1.300514	33.594284
1.300567	16.794340
1.300619	78.360527
1.300672	39.173729
1.300724	67.143768
1.300777	78.321342
1.300829	50.341042
1.300882	55.925167
1.300935	44.732677
1.300987	83.859787
1.301040	100.614975
1.301092	67.065475
1.301145	44.702866
1.301197	50.282341
1.301250	50.273964
1.301303	67.020782
1.301355	72.593750
1.301408	22.332817
1.301461	39.075920
1.301513	66.976135
1.301566	61.384563
1.301618	61.374336
1.301671	55.785561
1.301724	66.931519
1.301777	66.920372
1.301829	55.757690
1.301882	50.173565
1.301935	55.739124
1.301987	72.448799
1.302040	66.864677
1.302093	33.426773
1.302146	55.702011
1.302198	27.846369
1.302251	72.388512
1.302304	61.241619
1.302357	50.098438
1.302410	55.655666
1.302462	44.517124
1.302515	105.710571
1.302568	72.316246
1.302621	55.618626
1.302674	66.731247
1.302727	83.400177
1.302779	44.472694
1.302832	66.697945
1.302885	50.015133
1.302938	50.006813
1.302991	72.220047
1.303044	77.762497
1.303097	38.874783
1.303150	61.078781
1.303203	72.172012
1.303255	88.812317
1.303308	55.498466
1.303361	94.331703
1.303414	61.028011
1.303467	83.206177
1.303520	38.823093
1.303573	66.542809
1.303626	38.810184
1.303679	33.260342
1.303732	77.594559
1.303785	72.040115
1.303838	55.406261
1.303891	33.238232
1.303944	60.926632
1.303998	77.530098
1.304050	77.517212
1.304104	38.752163
1.304157	66.421242
1.304210	66.410202
1.304263	88.532227
1.304316	38.726414
1.304369	55.314255
1.304422	38.713547
1.304475	55.295879
1.304528	71.872704
1.304582	49.749760
1.304635	49.741493
1.304688	71.836891
1.304741	55.249969
1.304794	49.716713
1.304848	49.708458
1.304901	88.355911
1.304954	55.213276
1.305007	77.285751
1.305061	44.155952
1.305114	33.111465
1.305167	60.694279
1.305220	71.717690
1.305274	55.158298
1.305327	77.208794
1.305380	22.055994
1.305434	55.130833
1.305487	49.609512
1.305540	66.135040
1.305593	60.613724
1.305647	77.131935
1.305700	60.593609
1.305753	33.045574
1.305807	66.080185
1.305860	33.034611
1.305914	44.038837
1.305967	82.559120
1.306020	82.545425
1.306074	55.021152
1.306127	16.503609
1.306180	71.503769
1.306234	82.490669
1.306287	54.984657
1.306341	49.477982
1.306394	27.483210
1.306448	71.444496
1.306501	98.906738
1.306555	65.926895
1.306608	43.943974
1.306662	32.952515
1.306715	21.964701
1.306769	54.902649
1.306822	49.404190
1.306876	54.884445
1.306929	60.362881
1.306983	54.866253
1.307037	43.885727
1.307090	32.908840
1.307144	76.774559
1.307197	27.414942
1.307251	43.856640
1.307305	71.255226
1.307358	43.842102
1.307412	82.190323
1.307465	49.306023
1.307519	82.163086
1.307573	32.859791
1.307626	21.902897
1.307680	71.172623
1.307734	76.634743
1.307787	49.257030
1.307841	43.776775
1.307895	43.769524
1.307948	38.291992
1.308002	49.224403
1.308056	38.279308
1.308110	87.481071
1.308163	65.599937
1.308217	81.986343
1.308271	71.043068
1.308325	32.783676
1.308379	49.167374
1.308432	54.621372
1.308486	54.612328
1.308540	49.142960
1.308594	38.215973
1.308648	60.043732
1.308702	32.745705
1.308755	32.740284
1.308809	16.367434
1.308863	27.274542
1.308917	54.540054
1.308971	38.171719
1.309025	92.687408
1.309079	43.610386
1.309133	21.801584
1.309186	38.146461
1.309240	81.728889
1.309294	49.029221
1.309348	32.680740
1.309402	38.121223
1.309456	49.004894
1.309510	38.108612
1.309564	65.318245
1.309618	81.634300
1.309672	32.648319
1.309726	48.964378
1.309780	48.956284
1.309834	38.070812
1.309888	10.875576
1.309942	54.368889
1.309996	65.231880
1.310050	27.175455
1.310104	21.736769
1.310159	65.199524
1.310213	65.188751
1.310267	38.020485
1.310321	81.459000
1.310375	48.867317
1.310429	65.145653
1.310483	65.134888
1.310537	54.270103
1.310592	27.130566
1.310646	54.252167
1.310700	43.394558
1.310754	27.117119
1.310808	48.802746
1.310862	10.843263
1.310917	54.207355
1.310971	59.618240
1.311025	37.932613
1.311079	54.180492
1.311134	59.588696
1.311188	70.411369
1.311242	64.984375
1.311296	54.144703
1.311351	48.722183
1.311405	75.777542
1.311459	43.294304
1.311514	64.930725
1.311568	59.510006
1.311622	37.863750
1.311677	43.265713
1.311731	59.480530
1.311785	48.657852
1.311839	21.622141
1.311894	32.427856
1.311948	21.615004
1.312003	70.237160
1.312057	48.617699
1.312111	54.010750
1.312166	21.600733
1.312220	32.395752
1.312275	48.585609
1.312329	32.385059
1.312384	43.172955
1.312438	75.540199
1.312493	48.553543
1.312547	70.121323
1.312602	37.751404
1.312656	21.568672
1.312711	37.738949
1.312765	32.342331
1.312819	53.894993
1.312874	53.886105
1.312929	75.428101
1.312983	80.802490
1.313038	53.859440
1.313092	59.235611
1.313147	48.457508
1.313202	43.066235
1.313256	37.676743
1.313311	32.289024
1.313365	43.044930
1.313420	32.278374
1.313475	43.030735
1.313529	26.889774
1.313584	21.508274
1.313639	96.771271
1.313693	59.128250
1.313748	64.492912
1.313802	37.614662
1.313857	59.099010
1.313912	53.717518
1.313967	32.225197
1.314021	37.589867
1.314076	42.952766
1.314131	42.945686
1.314186	42.938610
1.314240	48.297974
1.314295	53.655571
1.314350	59.011402
1.314405	59.001678
1.314459	26.814526
1.314514	37.534149
1.314569	37.527966
1.314624	42.882038
1.314679	91.109322
1.314734	26.792444
1.314788	26.788031
1.314843	74.994125
1.314898	48.202568
1.314953	42.839672
1.315008	42.832615
1.315063	42.825562
1.315118	42.818508
1.315173	53.514320
1.315227	64.206604
1.315282	53.496696
1.315337	42.790310
1.315392	64.174896
1.315447	69.511353
1.315502	32.076881
1.315557	64.143196
1.315612	58.788254
1.315667	58.778576
1.315722	69.454155
1.315777	10.683496
1.315832	64.090416
1.315887	42.719913
1.315942	37.373772
1.315997	42.705853
1.316052	64.048233
1.316107	32.018848
1.316162	74.698349
1.316218	37.343029
1.316273	85.341446
1.316328	42.663700
1.316383	79.981277
1.316438	79.968117
1.316493	63.963966
1.316548	63.953445
1.316603	58.614346
1.316658	42.621601
1.316714	58.595062
1.316769	31.955685
1.316824	31.950428
1.316879	31.945173
1.316934	47.909878
1.316990	85.159111
1.317045	31.929413
1.317100	31.924162
1.317155	58.518005
1.317211	69.146271
1.317266	21.272278
1.317321	53.171947
1.317376	58.479527
1.317432	37.208126
1.317487	53.145725
1.317542	79.705482
1.317598	63.753902
1.317653	79.679276
1.317708	58.421864
1.317764	47.791847
1.317819	79.639992
1.317874	74.318436
1.317930	37.153111
1.317985	42.453720
1.318040	42.446743
1.318096	37.134796
1.318151	42.432793
1.318206	15.909682
1.318262	37.116493
1.318317	53.014847
1.318373	74.208588
1.318428	79.496140
1.318484	84.781952
1.318539	68.874016
1.318595	47.674179
1.318650	63.555130
1.318706	47.658516
1.318761	63.534248
1.318817	21.174604
1.318872	42.342251
1.318928	52.919121
1.318983	42.328346
1.319039	63.482090
1.319094	74.050270
1.319150	68.749680
1.319206	31.725409
1.319261	52.867001
1.319317	105.716637
1.319372	105.699280
1.319428	52.840961
1.319484	89.814888
1.319539	79.235413
1.319595	42.251949
1.319650	73.928772
1.319706	47.517838
1.319762	47.510040
1.319817	58.058292
1.319873	68.603081
1.319929	58.039234
1.319984	42.203426
1.320040	52.745625
1.320096	79.105446
1.320152	63.273975
1.320207	63.263592
1.320263	42.168804
1.320319	42.161884
1.320375	68.501823
1.320430	31.611038
1.320486	52.676418
1.320542	42.134220
1.320598	78.988701
1.320653	26.325249
1.320709	42.113487
1.320765	84.213158
1.320821	57.887047
1.320877	36.831169
1.320933	63.128792
1.320989	31.559219
1.321044	52.590073
1.321100	84.130310
1.321156	63.087387
1.321212	78.846298
1.321268	84.088928
1.321324	42.037571
1.321380	52.538345
1.321436	63.035675
1.321492	52.521118
1.321548	68.266258
1.321604	57.754284
1.321660	41.996231
1.321716	83.978691
1.321772	68.221497
1.321828	62.963367
1.321884	41.968700
1.321940	62.942730
1.321996	62.932411
1.322052	104.870163
1.322108	78.639732
1.322164	62.901474
1.322220	73.373024
1.322276	83.841141
1.322332	78.588188
1.322388	57.621895
1.322444	36.662472
1.322500	62.839649
1.322557	89.008247
1.322613	52.349216
1.322669	68.042831
1.322725	99.430923
1.322781	52.323490
1.322837	73.240883
1.322893	73.228889
1.322950	62.757336
1.323006	36.602448
1.323062	83.649033
1.323118	20.908834
1.323174	52.263523
1.323231	52.254963
1.323287	73.144966
1.323343	47.014065
1.323399	78.343941
1.323456	62.664886
1.323512	78.318283
1.323568	36.542549
1.323625	73.073128
1.323681	67.842506
1.323737	57.395802
1.323794	62.603348
1.323850	52.160915
1.323906	83.443802
1.323963	31.286303
1.324019	26.067652
1.324075	26.063385
1.324132	99.024651
1.324188	78.164558
1.324244	88.571999
1.324301	83.348236
1.324357	52.084122
1.324414	41.660477
1.324470	52.067074
1.324527	67.676117
1.324583	88.485062
1.324640	67.653976
1.324696	20.813200
1.324752	72.834282
1.324809	83.225563
1.324865	36.405224
1.324922	67.598640
1.324979	62.388538
1.325035	62.378330
1.325092	62.368126
1.325148	31.178963
1.325205	83.130295
1.325261	62.337524
1.325318	62.327328
1.325374	67.510231
1.325431	77.883675
1.325487	72.679543
1.325544	83.048752
1.325601	62.276375
1.325657	57.077343
1.325714	62.256008
1.325771	20.748610
1.325827	62.235649
1.325884	57.040016
1.325941	51.846081
1.325997	67.388885
1.326054	36.280392
1.326111	93.277184
1.326168	67.355843
1.326224	51.803715
1.326281	62.154293
1.326338	51.786777
1.326395	62.133976
1.326451	36.238895
1.326508	36.232971
1.326565	56.928219
1.326622	31.046680
1.326678	46.562408
1.326735	56.900311
1.326792	51.719101
1.326849	77.565971
1.326906	46.531979
1.326963	41.355000
1.327019	67.190895
1.327076	62.012230
1.327133	51.668415
1.327190	36.161980
1.327247	61.981838
1.327304	87.793259
1.327361	41.307724
1.327418	67.114090
1.327475	113.559135
1.327531	61.931229
1.327588	56.761017
1.327645	56.751747
1.327702	77.376106
1.327759	72.205902
1.327816	72.194107
1.327873	87.649956
1.327930	92.790680
1.327987	56.696156
1.328044	56.686897
1.328101	82.440201
1.328158	61.820053
1.328215	87.564110
1.328272	61.799866
1.328330	66.938927
1.328387	36.038151
1.328444	51.474667
1.328501	77.199394
1.328558	77.186790
1.328615	82.319138
1.328672	51.441063
1.328729	72.005730
1.328786	46.281841
1.328844	51.415874
1.328901	35.985237
1.328958	46.259182
1.329015	66.807915
1.329072	61.658779
1.329129	56.511322
1.329187	61.638653
1.329244	82.171463
1.329301	77.023170
1.329358	66.742523
1.329416	71.864838
1.329473	87.250198
1.329530	71.841385
1.329587	97.483109
1.329645	25.649265
1.329702	87.193275
1.329759	66.666328
1.329816	66.655457
1.329874	46.138554
1.329931	51.256699
1.329989	76.872505
1.330046	61.487972
1.330103	61.477943
1.330161	66.590240
1.330218	51.214909
1.330275	76.809830
1.330333	40.958561
1.330390	51.189854
1.330448	66.535957
1.330505	56.290474
1.330562	61.397778
1.330620	86.965996
1.330677	71.607376
1.330735	76.709679
1.330792	56.244595
1.330850	51.123112
1.330907	92.006599
1.330965	71.549019
1.331022	71.537354
1.331080	56.198757
1.331137	71.514030
1.331195	25.536562
1.331252	61.277760
1.331310	40.845181
1.331367	76.572227
1.331425	51.039833
1.331483	71.444115
1.331540	51.023197
1.331598	81.623810
1.331656	56.107220
1.331713	91.796852
1.331771	71.385918
1.331828	50.981632
1.331886	66.265320
1.331944	86.640533
1.332001	50.956715
1.332059	66.232933
1.332117	96.786209
1.332174	66.211349
1.332232	61.108212
1.332290	96.738907
1.332347	35.634842
1.332405	91.617523
1.332463	45.801300
1.332521	50.882042
1.332578	50.873756
1.332636	50.865467
1.332694	66.114334
1.332752	81.358238
1.332810	96.597176
1.332867	96.581436
1.332925	50.824059
1.332983	35.571045
1.333041	71.130508
1.333099	96.518539
1.333157	86.344627
1.333214	60.939224
1.333272	81.239067
1.333330	40.612919
1.333388	76.136826
1.333446	65.974503
1.333504	50.741356
1.333562	101.466187
1.333620	60.869801
1.333678	60.859890
1.333736	81.133308
1.333794	101.400131
1.333851	60.830173
1.333910	45.615204
1.333967	35.472717
1.334026	101.334122
1.334083	60.790577
1.334141	35.455399
1.334200	86.091949
1.334258	75.951118
1.334316	86.063927
1.334374	70.864639
1.334432	60.731236
1.334490	80.961807
1.334548	45.533604
1.334606	70.818527
1.334664	65.749359
1.334722	70.795479
1.334780	30.335983
1.334838	96.048317
1.334896	90.978333
1.334955	50.535297
1.335013	75.790611
1.335071	70.726395
1.335129	80.817017
1.335187	40.401936
1.335246	85.840149
1.335304	55.534588
1.335362	80.764442
1.335420	116.080002
1.335478	65.599762
1.335537	80.725037
1.335595	65.578430
1.335653	40.349392
1.335711	55.471390
1.335770	50.420334
1.335828	110.906700
1.335886	55.444332
1.335945	65.514465
1.336003	40.310036
1.336061	60.455223
1.336120	85.630974
1.336178	55.399269
1.336236	80.567650
1.336295	75.519890
1.336353	45.304569
1.336411	65.429291
1.336470	45.289837
1.336528	60.376633
1.336587	85.519661
1.336645	80.476006
1.336703	75.433990
1.336762	70.393616
1.336820	95.518661
1.336879	65.344254
1.336937	55.282303
1.336996	90.447243
1.337054	70.336426
1.337113	30.139282
1.337171	65.291168
1.337230	85.366882
1.337288	70.290710
1.337347	85.339134
1.337405	50.191334
1.337464	75.274765
1.337523	70.245033
1.337581	75.250305
1.337640	65.206337
1.337698	85.255966
1.337757	75.213631
1.337816	80.214844
1.337874	75.189194
1.337933	85.200577
1.337991	60.131813
1.338050	35.071194
1.338109	80.149704
1.338167	55.093971
1.338226	70.108208
1.338285	55.076073
1.338343	90.109848
1.338402	50.052895
1.338461	45.040287
1.338520	75.054955
1.338578	55.031361
1.338637	60.024460
1.338696	70.017166
1.338755	45.003727
1.338813	74.994026
1.338872	64.984268
1.338931	44.981804
1.338990	64.963165
1.339049	64.952621
1.339107	84.924248
1.339166	79.915726
1.339225	74.908829
1.339284	79.889778
1.339343	59.907604
1.339402	94.838310
1.339460	94.822914
1.339519	89.817650
1.339578	54.879654
1.339637	64.847244
1.339696	49.874397
1.339755	99.732605
1.339814	34.900745
1.339873	44.865105
1.339932	104.668251
1.339991	44.850540
1.340050	64.773598
1.340109	99.635521
1.340168	44.828705
1.340227	69.722229
1.340286	99.587013
1.340345	69.699600
1.340404	74.666023
1.340463	84.607758
1.340522	84.594032
1.340581	89.555618
1.340640	74.617569
1.340699	89.526558
1.340758	109.403595
1.340817	54.692921
1.340876	84.511711
1.340936	64.616119
1.340995	44.726978
1.341054	89.439445
1.341113	94.392990
1.341172	74.508690
1.341231	69.530167
1.341290	69.518883
1.341350	89.366928
1.341409	99.280479
1.341468	59.558624
1.341527	79.398621
1.341586	79.385742
1.341646	79.372864
1.341705	54.559994
1.341764	79.347122
1.341823	69.417473
1.341883	69.406212
1.341942	84.265305
1.342001	84.251640
1.342061	99.103508
1.342120	89.178696
1.342179	74.303528
1.342239	79.244247
1.342298	84.183357
1.342357	69.316231
1.342417	69.304993
1.342476	108.890190
1.342535	54.436268
1.342595	108.854881
1.342654	118.731529
1.342714	79.141525
1.342773	93.965324
1.342832	34.613190
1.342892	93.934860
1.342951	64.260803
1.343011	88.962074
1.343070	54.356899
1.343130	98.814705
1.343189	64.219147
1.343249	69.147873
1.343308	44.445000
1.343368	83.938065
1.343427	69.114265
1.343487	98.718658
1.343546	54.286465
1.343606	78.949333
1.343665	98.670677
1.343725	69.058281
1.343785	93.706764
1.343844	73.967041
1.343904	73.955055
1.343963	73.943069
1.344023	64.073608
1.344082	88.702934
1.344142	68.979996
1.344202	83.747849
1.344262	88.659828
1.344321	88.645462
1.344381	83.707153
1.344441	88.616745
1.344500	103.369453
1.344560	98.431152
1.344620	63.969887
1.344679	93.479309
1.344739	59.029999
1.344799	73.775551
1.344859	63.928452
1.344918	68.834877
1.344978	88.487648
1.345038	68.812576
1.345098	78.630211
1.345158	98.271851
1.345217	83.517540
1.345277	63.856014
1.345337	78.579292
1.345397	68.745743
1.345457	93.282692
1.345517	58.905842
1.345576	83.436432
1.345636	58.886768
1.345696	78.502975
1.345756	93.207191
1.345816	63.763020
1.345876	58.848640
1.345936	68.645630
1.345996	98.049316
1.346056	78.426750
1.346116	112.720207
1.346176	63.701107
1.346236	97.985840
1.346296	73.477486
1.346356	112.647240
1.346416	63.659874
1.346476	102.818535
1.346536	83.220581
1.346596	92.996178
1.346656	68.512413
1.346716	73.394272
1.346776	83.166718
1.346836	68.479149
1.346896	83.139801
1.346956	83.126343
1.347016	63.556919
1.347076	68.434837
1.347136	63.536350
1.347197	122.165512
1.347257	58.629959
1.347317	73.275589
1.347377	92.800728
1.347437	68.368423
1.347497	78.122696
1.347558	78.110054
1.347618	68.335243
1.347678	92.725677
1.347738	92.710678
1.347798	73.180801
1.347859	102.436546
1.347919	68.279984
1.347979	78.021645
1.348039	87.760147
1.348100	43.872978
1.348160	38.991894
1.348220	102.337166
1.348281	77.958565
1.348341	58.459465
1.348401	92.545845
1.348462	63.310600
1.348522	38.954067
1.348582	77.895538
1.348643	97.353676
1.348703	63.269653
1.348763	82.723862
1.348824	92.441132
1.348884	97.290718
1.348945	97.274986
1.349005	106.985176
1.349066	102.105705
1.349126	68.059464
1.349186	72.909058
1.349247	72.897270
1.349307	82.603554
1.349368	111.739677
1.349428	82.576843
1.349489	87.420166
1.349549	72.838364
1.349610	82.536797
1.349670	82.523453
1.349731	67.949501
1.349792	116.466034
1.349852	87.335403
1.349913	67.916557
1.349973	77.606377
1.350034	82.443443
1.350094	96.976608
1.350155	106.657028
1.350216	82.403473
1.350276	92.083115
1.350337	87.222534
1.350397	111.433006
1.350458	87.194344
1.350519	92.023598
1.350580	72.638466
1.350640	121.044548
1.350701	87.137993
1.350762	72.603256
1.350822	91.949265
1.350883	101.611710
1.350944	135.460388
1.351005	106.415970
1.351065	67.708305
1.351126	62.861843
1.351187	82.190666
1.351248	82.177383
1.351308	125.662750
1.351369	86.983238
1.351430	120.790527
1.351491	96.616814
1.351552	72.450905
1.351613	82.097755
1.351673	77.255997
1.351734	77.243515
1.351795	62.750217
1.351856	91.697044
1.351917	91.682228
1.351978	106.141220
1.352039	77.181145
1.352100	106.106934
1.352161	96.445267
1.352222	135.001572
1.352283	67.489883
1.352344	67.478981
1.352404	91.563828
1.352465	72.275558
1.352526	101.169441
1.352587	81.885841
1.352648	86.688652
1.352710	105.935692
1.352771	86.660660
1.352832	86.646667
1.352893	105.884377
1.352954	105.867279
1.353015	110.661560
1.353076	86.590714
1.353137	101.006187
1.353198	105.798920
1.353259	86.548775
1.353320	86.534805
1.353381	76.907402
1.353443	86.506859
1.353504	62.467091
1.353565	100.892090
1.353626	124.893845
1.353687	76.845345
1.353748	86.437057
1.353810	100.826950
1.353871	86.409149
1.353932	91.194939
1.353993	129.571884
1.354055	100.761864
1.354116	91.150780
1.354177	105.525970
1.354238	52.754471
1.354300	86.311562
1.354361	143.829391
1.354422	119.838478
1.354483	76.684250
1.354545	81.463860
1.354606	91.033150
1.354668	105.389801
1.354729	81.424431
1.354790	100.566887
1.354851	81.398148
1.354913	90.959724
1.354974	105.304787
1.355036	90.930367
1.355097	81.345619
1.355159	105.253822
1.355220	76.535881
1.355281	90.871696
1.355343	76.511185
1.355404	143.435318
1.355466	109.949341
1.355527	95.592697
1.355589	100.356133
1.355650	129.008499
1.355712	124.210365
1.355773	95.531021
1.355835	81.188271
1.355896	85.950180
1.355958	66.839355
1.356019	109.789803
1.356081	104.999390
1.356143	90.666664
1.356204	71.567398
1.356266	71.555855
1.356327	66.774689
1.356389	109.683586
1.356451	42.912743
1.356512	114.415520
1.356574	90.564346
1.356636	90.549736
1.356697	95.300140
1.356759	100.049011
1.356821	100.032875
1.356882	114.304848
1.356944	85.714806
1.357006	90.462151
1.357068	123.770348
1.357129	104.711868
1.357191	90.418396
1.357253	90.403816
1.357315	137.962524
1.357376	114.157471
1.357438	90.360092
1.357500	114.120659
1.357562	104.593735
1.357624	109.330360
1.357685	99.807281
1.357747	109.295113
1.357809	133.033463
1.357871	104.509445
1.357933	123.491249
1.357995	90.229057
1.358057	123.451431
1.358118	99.694695
1.358180	123.411636
1.358242	99.662560
1.358304	132.861984
1.358366	90.141815
1.358428	80.640205
1.358490	80.627205
1.358552	99.582260
1.358614	113.789948
1.358676	123.252579
1.358738	66.356071
1.358800	118.473892
1.358862	118.454796
1.358924	80.536278
1.358986	61.576641
1.359048	104.189827
1.359110	85.232483
1.359172	127.828117
1.359234	113.606682
1.359296	137.252625
1.359358	89.909637
1.359420	85.163826
1.359483	99.341789
1.359545	113.515175
1.359607	137.142075
1.359669	108.750320
1.359731	94.550255
1.359793	108.715279
1.359856	118.149734
1.359918	89.779335
1.359980	103.938263
1.360042	118.092636
1.360104	99.181831
1.360167	84.999298
1.360229	61.378494
1.360291	94.413239
1.360353	141.597046
1.360416	117.978523
1.360478	117.959518
1.360540	117.940514
1.360602	99.054070
1.360665	127.334724
1.360727	89.591476
1.360789	113.149956
1.360852	108.417908
1.360914	98.974319
1.360976	94.246071
1.361039	108.365524
1.361101	122.480423
1.361163	75.360428
1.361226	108.313171
1.361288	84.753174
1.361351	117.693779
1.361413	127.088814
1.361476	131.774582
1.361538	122.342400
1.361601	122.322701
1.361663	112.895073
1.361725	75.251266
1.361788	169.288071
1.361850	122.243919
1.361913	98.719574
1.361975	89.303329
1.362038	89.288948
1.362101	122.165199
1.362163	112.749718
1.362226	103.337265
1.362288	126.802582
1.362351	126.782166
1.362413	122.066872
1.362476	107.964844
1.362539	79.787254
1.362601	126.700531
1.362664	117.296417
1.362727	103.204231
1.362789	112.568306
1.362852	103.170998
1.362914	84.399048
1.362977	126.578194
1.363040	84.371872
1.363102	98.418007
1.363165	93.716347
1.363228	103.071388
1.363291	65.580322
1.363353	98.354652
1.363416	103.021614
1.363479	74.912750
1.363542	98.307159
1.363604	131.055115
1.363667	88.915939
1.363730	93.580666
1.363793	121.635277
1.363856	98.228065
1.363919	144.979996
1.363981	93.520432
1.364044	116.881721
1.364107	135.560974
1.364170	121.517868
1.364233	93.460236
1.364296	98.117455
1.364359	112.116188
1.364421	116.768898
1.364484	93.400085
1.364547	112.062065
1.364610	84.033028
1.364673	126.029259
1.364736	116.674980
1.364799	83.992462
1.364862	121.302925
1.364925	130.612900
1.364988	139.919876
1.365051	149.223846
1.365114	121.224869
1.365177	125.867111
1.365240	102.541885
1.365303	116.506119
1.365366	74.551918
1.365430	121.127380
1.365493	125.765884
1.365556	116.431160
1.365619	116.412430
1.365682	74.491966
1.365745	125.684975
1.365808	74.468002
1.365871	116.337532
1.365934	139.582581
1.365998	111.648102
1.366061	120.932655
1.366124	139.515228
1.366187	134.843033
1.366250	172.013428
1.366314	116.206596
1.366377	102.245354
1.366440	130.109512
1.366503	120.796547
1.366567	83.614929
1.366630	116.113167
1.366693	125.382050
1.366756	106.789749
1.366820	106.772575
1.366883	143.887711
1.366946	116.019821
1.367010	120.641205
1.367073	139.179001
1.367136	120.602402
1.367200	125.220818
1.367263	115.926552
1.367326	143.725815
1.367390	129.795975
1.367453	88.061684
1.367517	115.851997
1.367580	139.000046
1.367644	129.712509
1.367707	120.427963
1.367770	134.301895
1.367834	129.649948
1.367897	120.369881
1.367961	138.865982
1.368024	92.562439
1.368088	106.429688
1.368151	111.039215
1.368215	111.021355
1.368278	180.380707
1.368342	143.356476
1.368405	115.591476
1.368469	120.195808
1.368533	115.554306
1.368596	134.021454
1.368660	133.999908
1.368723	138.598297
1.368787	120.099220
1.368851	138.553741
1.368914	110.825172
1.368978	138.509201
1.369042	124.638237
1.369105	115.387222
1.369169	119.983421
1.369233	96.894112
1.369296	106.105064
1.369360	101.475487
1.369424	138.353409
1.369487	110.664940
1.369551	142.919235
1.369615	129.067596
1.369679	133.655670
1.369742	129.026108
1.369806	124.398033
1.369870	124.378044
1.369934	92.117073
1.369998	105.917610
1.370061	124.318077
1.370125	101.279930
1.370189	156.498383
1.370253	105.849533
1.370317	133.441010
1.370381	124.218216
1.370444	96.598640
1.370508	151.773468
1.370572	114.961426
1.370636	133.333817
1.370700	96.536560
1.370764	124.098488
1.370828	110.292046
1.370892	110.274323
1.370956	137.820755
1.371020	142.391891
1.371084	105.628616
1.371148	151.529755
1.371212	146.914337
1.371276	100.987373
1.371340	119.329536
1.371404	114.721504
1.371468	110.114952
1.371532	96.335098
1.371596	119.252869
1.371660	119.233704
1.371724	100.873848
1.371788	114.610954
1.371853	119.176247
1.371917	155.820816
1.371981	128.302414
1.372045	137.444794
1.372109	137.422699
1.372173	119.080544
1.372237	155.695694
1.372301	114.463737
1.372366	137.334427
1.372430	109.849884
1.372494	118.984924
1.372558	114.390205
1.372623	123.521576
1.372687	150.946564
1.372751	150.922318
1.372815	164.616089
1.372880	155.445770
1.372944	146.278397
1.373008	150.825378
1.373073	155.370880
1.373137	123.362938
1.373201	114.206596
1.373266	137.025909
1.373330	164.404678
1.373394	146.114014
1.373459	141.525223
1.373523	123.244102
1.373587	141.479767
1.373652	118.641388
1.373716	95.810349
1.373780	141.411606
1.373845	118.584236
1.373909	100.324394
1.373974	104.867752
1.374038	150.438263
1.374103	141.298096
1.374167	145.832672
1.374232	145.809265
1.374296	113.895187
1.374361	127.542130
1.374425	122.967300
1.374490	163.930084
1.374554	159.350876
1.374619	127.460228
1.374683	154.748276
1.374748	136.520676
1.374812	122.848877
1.374877	122.829155
1.374942	131.906433
1.375006	154.624084
1.375071	181.881485
1.375136	150.028122
1.375200	136.367310
1.375265	109.076332
1.375329	136.323517
1.375394	149.931793
1.375459	149.907730
1.375524	136.257874
1.375588	104.447601
1.375653	140.754593
1.375718	158.890961
1.375782	145.248413
1.375847	99.842255
1.375912	172.427124
1.375977	122.494339
1.376042	108.866379
1.376106	136.061127
1.376171	149.643219
1.376236	154.153107
1.376301	135.995621
1.376366	140.506241
1.376431	158.610611
1.376495	167.647171
1.376560	167.620255
1.376625	126.827400
1.376690	140.393509
1.376755	131.314789
1.376820	86.020012
1.376885	131.272629
1.376950	99.570152
1.377015	135.755676
1.377079	144.782822
1.377144	180.949478
1.377209	153.782364
1.377274	162.802261
1.377339	158.254562
1.377404	131.104172
1.377469	122.042915
1.377534	158.178391
1.377599	122.003738
1.377664	140.055893
1.377729	140.033417
1.377795	180.659271
1.377860	149.019989
1.377925	148.996063
1.377990	203.143845
1.378055	148.948257
1.378120	135.385773
1.378185	135.364044
1.378250	153.387970
1.378315	130.809921
1.378381	193.928406
1.378446	198.406525
1.378511	130.746948
1.378576	162.280518
1.378641	148.733276
1.378706	144.203064
1.378772	162.202408
1.378837	148.661682
1.378902	126.116951
1.378968	189.145065
1.379033	144.087402
1.379098	153.068314
1.379163	148.542465
1.379228	153.019196
1.379294	134.995270
1.379359	134.973618
1.379424	170.939148
1.379490	125.934952
1.379555	157.393433
1.379620	125.894547
1.379686	121.378830
1.379751	134.843735
1.379817	125.833961
1.379882	157.267212
1.379947	188.690384
1.380013	125.773407
1.380078	148.209167
1.380144	166.147247
1.380209	116.733391
1.380275	148.137848
1.380340	125.672554
1.380406	143.602737
1.380471	161.527161
1.380537	157.015106
1.380602	156.989914
1.380668	165.934143
1.380733	107.615692
1.380799	98.631897
1.380864	125.511368
1.380930	134.454895
1.380995	152.357773
1.381061	152.333328
1.381127	174.707260
1.381192	152.284470
1.381258	179.129456
1.381323	161.190659
1.381389	111.919998
1.381455	170.091110
1.381520	129.785553
1.381586	143.188675
1.381652	147.639648
1.381717	111.830276
1.381783	169.954758
1.381849	129.681503
1.381914	147.544952
1.381980	178.813675
1.382046	111.740623
1.382112	187.694138
1.382177	187.664047
1.382243	147.426666
1.382309	138.469513
1.382375	183.107727
1.382441	147.355743
1.382506	147.332123
1.382572	174.091858
1.382638	120.505798
1.382704	151.723709
1.382770	138.314148
1.382836	156.136078
1.382902	129.349152
1.382967	120.409210
1.383033	164.978760
1.383099	164.952301
1.383165	187.213120
1.383231	142.615692
1.383297	164.872955
1.383363	182.667770
1.383429	151.456299
1.383495	133.616486
1.383561	178.126740
1.383627	182.550629
1.383693	151.359177
1.383759	204.747223
1.383825	200.264084
1.383891	151.286377
1.383957	177.955444
1.384023	146.789703
1.384089	160.108536
1.384155	195.656845
1.384221	164.503235
1.384287	146.695572
1.384354	186.673523
1.384420	124.429070
1.384486	137.738663
1.384552	164.371399
1.384618	133.252747
1.384684	168.759750
1.384750	173.173019
1.384817	119.869797
1.384883	159.800766
1.384949	115.393166
1.385015	168.624512
1.385082	168.597473
1.385148	168.570450
1.385214	190.720200
1.385280	141.908554
1.385347	168.489395
1.385413	137.429840
1.385479	172.867889
1.385545	163.976578
1.385612	177.243561
1.385678	208.227798
1.385744	172.757065
1.385811	194.874161
1.385877	177.129929
1.385943	154.963852
1.386010	163.792664
1.386076	230.158188
1.386143	163.740158
1.386209	199.111511
1.386275	141.567719
1.386342	172.507996
1.386408	190.170639
1.386475	163.608963
1.386541	163.582748
1.386608	172.397415
1.386674	190.048737
1.386741	176.761185
1.386807	132.549637
1.386874	150.198853
1.386940	167.842392
1.387007	145.734512
1.387073	172.204086
1.387140	154.517349
1.387206	185.391113
1.387273	172.121292
1.387340	123.554459
1.387406	136.770508
1.387473	172.038544
1.387540	158.779358
1.387606	136.704758
1.387673	158.728470
1.387739	202.787216
1.387806	171.900726
1.387873	202.722214
1.387939	163.033035
1.388006	189.440460
1.388073	167.385681
1.388140	193.783936
1.388206	171.735504
1.388273	193.721832
1.388340	154.072220
1.388407	176.054306
1.388473	206.830658
1.388540	189.197723
1.388607	180.368927
1.388674	145.151718
1.388741	175.913284
1.388807	180.282227
1.388874	171.460495
1.388941	171.433014
1.389008	158.220505
1.389075	202.138245
1.389142	162.563400
1.389209	184.501862
1.389275	144.942520
1.389342	175.659744
1.389409	158.068451
1.389476	193.163803
1.389543	166.796555
1.389610	157.992477
1.389677	184.295013
1.389744	219.363678
1.389811	184.235962
1.389878	197.364044
1.389945	157.865936
1.390012	149.071716
1.390079	140.280304
1.390146	227.918976
1.390213	179.676559
1.390280	166.502808
1.390347	166.476135
1.390414	214.632202
1.390481	183.940979
1.390549	205.805725
1.390616	205.772751
1.390683	192.607468
1.390750	179.446381
1.390817	153.161392
1.390884	170.638214
1.390952	209.982605
1.391019	179.331406
1.391086	231.781509
1.391153	157.411270
1.391220	227.335419
1.391288	187.958786
1.391355	187.928665
1.391422	187.898560
1.391489	205.344589
1.391556	196.575027
1.391624	187.808273
1.391691	170.310440
1.391758	192.114334
1.391826	192.083557
1.391893	192.052780
1.391960	178.929611
1.392028	174.537506
1.392095	165.784073
1.392162	213.739944
1.392230	170.092300
1.392297	183.146973
1.392365	183.117630
1.392432	200.525284
1.392499	200.493164
1.392567	213.534592
1.392634	213.500381
1.392702	169.901657
1.392769	204.720474
1.392837	222.107910
1.392904	182.883102
1.392972	182.853806
1.393039	208.942291
1.393107	187.147491
1.393174	156.656525
1.393242	187.087540
1.393309	165.306686
1.393377	173.979172
1.393444	243.531830
1.393512	173.923431
1.393579	191.285141
1.393647	208.641266
1.393715	212.953842
1.393782	182.502640
1.393850	217.230240
1.393918	243.258896
1.393985	195.444595
1.394053	204.098312
1.394121	221.432922
1.394188	164.962799
1.394256	186.638535
1.394324	190.948380
1.394392	182.239716
1.394459	225.593979
1.394527	195.194290
1.394595	216.847809
1.394662	203.804291
1.394730	203.771652
1.394798	182.064651
1.394866	160.364594
1.394934	221.007690
1.395001	207.973923
1.395069	186.280136
1.395137	177.587494
1.395205	216.535431
1.395273	233.820816
1.395341	190.490158
1.395409	233.745926
1.395476	173.117401
1.395544	199.053131
1.395612	194.694702
1.395680	177.360092
1.395748	220.583313
1.395816	181.627762
1.395884	203.217560
1.395952	203.185013
1.396020	203.152466
1.396088	194.476532
1.396156	241.976486
1.396224	220.336151
1.396292	194.383118
1.396360	215.946655
1.396428	228.866791
1.396496	198.607285
1.396564	224.476639
1.396632	146.749680
1.396701	189.880936
1.396769	220.054016
1.396837	185.506027
1.396905	245.863968
1.396973	202.697479
1.397041	215.601074
1.397109	224.189209
1.397177	181.046906
1.397246	193.947769
1.397314	189.607452
1.397382	185.268509
1.397450	232.625519
1.397518	241.202652
1.397587	215.325027
1.397655	236.819595
1.397723	154.984375
1.397791	193.699448
1.397860	253.920822
1.397928	245.274048
1.397996	223.722961
1.398064	197.877075
1.398133	154.835526
1.398201	193.513412
1.398270	193.482422
1.398338	219.244965
1.398406	206.315170
1.398475	214.877213
1.398543	206.249100
1.398611	206.216064
1.398680	201.887573
1.398748	266.277130
1.398817	253.352173
1.398885	171.736679
1.398954	274.734711
1.399022	227.478241
1.399090	214.567749
1.399159	163.045380
1.399227	210.209061
1.399296	210.175400
1.399364	197.275925
1.399433	244.411469
1.399502	244.372330
1.399570	227.187012
1.399639	188.577896
1.399707	252.825317
1.399776	205.655457
1.399844	214.190140
1.399913	205.589615
1.399982	205.556686
1.400050	231.214249
1.400119	205.490875
1.400187	196.897217
1.400256	209.704758
1.400325	226.787201
1.400394	209.637619
1.400462	248.102753
1.400531	226.678284
1.400600	235.194519
1.400668	218.054550
1.400737	247.943893
1.400806	209.436310
1.400875	226.496887
1.400943	213.642090
1.401012	196.519257
1.401081	213.573685
1.401150	192.185547
1.401219	226.315628
1.401287	243.357071
1.401356	251.855591
1.401425	226.206940
1.401494	226.170715
1.401563	243.201263
1.401632	260.226349
1.401701	247.388718
1.401770	221.761276
1.401838	230.253677
1.401907	230.216812
1.401976	242.967743
1.402045	238.666931
1.402114	268.457306
1.402183	183.203430
1.402252	259.851624
1.402321	221.477402
1.402390	221.441940
1.402459	195.859589
1.402528	229.885315
1.402597	208.566238
1.402666	208.532852
1.402735	229.774918
1.402804	233.992554
1.402873	221.193893
1.402943	229.664581
1.403012	233.880188
1.403081	225.339371
1.403150	259.311340
1.403219	216.766571
1.403288	276.226898
1.403357	186.954422
1.403427	259.145325
1.403496	203.884979
1.403565	246.321579
1.403634	250.528397
1.403703	250.488281
1.403772	178.285141
1.403842	207.966034
1.403911	233.393906
1.403980	229.113693
1.404050	195.139679
1.404119	224.798859
1.404188	245.966904
1.404257	271.368317
1.404327	237.409256
1.404396	254.326340
1.404465	211.904694
1.404535	283.906830
1.404604	271.151154
1.404673	220.275055
1.404743	279.535126
1.404812	220.204529
1.404882	304.849762
1.404951	270.934204
1.405020	241.262146
1.405090	287.775421
1.405159	236.953598
1.405229	211.531845
1.405298	236.877731
1.405368	304.508331
1.405437	262.173523
1.405507	262.131561
1.405576	274.771362
1.405646	224.008469
1.405715	240.876205
1.405785	266.188965
1.405854	270.370911
1.405924	321.014069
1.405994	206.936462
1.406063	282.908630
1.406133	223.757568
1.406202	265.933411
1.406272	320.757202
1.406342	232.089752
1.406411	257.367432
1.406481	248.889313
1.406551	248.849472
1.406620	198.204285
1.406690	286.717743
1.406760	231.866928
1.406829	244.475082
1.406899	240.221527
1.406969	235.969345
1.407039	269.636078
1.407108	256.955750
1.407178	197.950607
1.407248	265.295563
1.407318	244.201263
1.407387	244.162170
1.407457	206.241913
1.407527	227.250626
1.407597	189.345215
1.407667	244.005875
1.407737	264.998444
1.407806	290.189911
1.407876	252.298676
1.407946	227.032455
1.408016	264.828796
1.408086	264.786407
1.408156	285.755463
1.408226	298.314545
1.408296	273.061157
1.408366	281.417969
1.408436	277.173340
1.408506	247.736496
1.408576	298.075867
1.408646	293.830566
1.408716	226.633011
1.408786	264.362854
1.408856	268.516113
1.408926	260.083344
1.408996	234.876373
1.409066	255.806519
1.409136	272.537079
1.409206	293.454498
1.409276	251.492157
1.409346	293.360565
1.409417	280.743011
1.409487	272.319031
1.409557	205.253784
1.409627	226.161850
1.409697	288.938324
1.409767	259.584167
1.409838	318.149017
1.409908	238.573578
1.409978	259.459534
1.410048	267.786346
1.410118	259.376495
1.410189	267.700623
1.410259	246.746994
1.410329	255.070465
1.410399	271.752899
1.410470	267.529236
1.410540	254.947998
1.410610	300.874054
1.410681	238.153824
1.410751	275.712921
1.410821	275.668793
1.410892	271.448547
1.410962	204.597672
1.411033	283.886017
1.411103	283.840576
1.411173	237.887100
1.411244	258.712982
1.411314	279.532166
1.411385	300.344696
1.411455	262.759552
1.411526	337.779633
1.411596	262.675415
1.411667	300.152435
1.411737	291.768158
1.411808	275.051666
1.411878	262.507294
1.411949	324.957001
1.412019	270.754150
1.412090	258.216461
1.412160	333.129181
1.412231	328.912415
1.412301	283.069153
1.412372	332.969238
1.412443	282.978546
1.412513	303.737183
1.412584	307.848663
1.412655	324.437195
1.412725	253.685913
1.412796	257.803406
1.412867	245.289780
1.412937	336.699860
1.413008	307.553101
1.413079	282.571136
1.413149	294.990265
1.413220	265.864166
1.413291	286.588928
1.413362	282.390259
1.413432	269.888641
1.413503	253.239563
1.413574	315.461090
1.413645	290.509766
1.413716	294.612732
1.413786	257.226257
1.413857	286.222107
1.413928	265.438873
1.413999	327.598663
1.414070	261.207764
1.414141	286.038879
1.414212	294.282745
1.414282	319.100647
1.414353	277.614563
1.414424	347.998352
1.414495	331.373932
1.414566	252.632187
1.414637	269.155121
1.414708	269.112061
1.414779	368.417511
1.414850	343.525391
1.414921	264.844635
1.414992	293.764984
1.415063	306.128571
1.415134	330.896851
1.415205	322.572754
1.415276	322.521118
1.415347	318.335266
1.415419	289.349396
1.415490	289.303070
1.415561	351.240326
1.415632	305.736755
1.415703	243.724075
1.415774	338.680908
1.415845	359.274689
1.415916	297.283173
1.415988	301.363861
1.416059	317.826050
1.416130	251.743973
1.416201	305.345428
1.416272	330.050323
1.416344	321.747559
1.416415	338.193268
1.416486	317.520905
1.416557	284.486176
1.416629	296.807617
1.416700	309.125092
1.416771	313.196625
1.416843	313.146484
1.416914	354.293243
1.416985	329.522339
1.417057	308.877747
1.417128	284.122040
1.417199	333.481171
1.417271	271.681915
1.417342	329.258667
1.417414	341.551178
1.417485	300.352356
1.417557	316.759308
1.417628	329.047882
1.417699	291.983246
1.417771	374.172150
1.417842	308.334259
1.417914	332.947693
1.417985	300.015930
1.418057	328.731964
1.418128	295.811401
1.418200	324.518860
1.418271	308.038208
1.418343	303.882385
1.418415	316.151306
1.418486	373.573547
1.418558	348.886475
1.418629	307.791718
1.418701	348.774780
1.418772	369.231812
1.418844	258.420898
1.418916	356.809814
1.418988	303.444824
1.419059	258.296783
1.419131	332.042725
1.419203	331.989563
1.419274	323.740448
1.419346	335.980591
1.419418	323.636780
1.419489	352.257080
1.419561	344.009949
1.419633	315.291992
1.419705	290.677216
1.419776	323.377808
1.419848	356.067902
1.419920	319.182190
1.419992	331.405365
1.420064	298.626160
1.420136	327.209137
1.420207	359.872437
1.420279	347.548401
1.420351	322.963867
1.420423	322.912140
1.420495	314.686768
1.420567	306.464020
1.420639	379.954529
1.420711	363.554199
1.420783	330.822174
1.420855	371.604919
1.420927	347.047943
1.420999	383.732727
1.421071	379.589691
1.421143	363.205078
1.421215	310.102997
1.421287	338.610901
1.421359	350.793671
1.421431	309.954071
1.421503	350.681335
1.421575	346.548157
1.421647	334.263519
1.421719	346.437195
1.421791	350.456818
1.421863	321.879700
1.421935	346.270813
1.422007	321.776642
1.422080	333.942535
1.422152	374.607239
1.422224	374.547272
1.422296	390.769348
1.422368	366.287598
1.422441	366.228973
1.422513	374.307434
1.422585	349.840057
1.422657	353.851288
1.422730	357.861237
1.422802	349.672028
1.422874	321.158936
1.422946	394.271240
1.423019	349.504089
1.423091	353.511475
1.423163	333.141388
1.423236	385.894684
1.423308	377.710083
1.423380	345.163635
1.423453	336.988159
1.423525	304.458618
1.423598	357.174225
1.423670	328.710022
1.423742	381.404846
1.423815	344.832153
1.423887	393.451324
1.423960	421.777161
1.424032	304.117523
1.424105	356.774078
1.424177	364.824158
1.424250	352.606873
1.424322	393.073456
1.424395	405.165466
1.424467	380.794556
1.424540	332.129303
1.424612	332.076111
1.424685	372.513519
1.424757	364.357056
1.424830	323.821075
1.424903	404.711517
1.424975	291.345642
1.425048	364.123718
1.425121	360.020233
1.425193	396.363312
1.425266	388.212067
1.425339	351.760864
1.425411	347.661926
1.425484	396.109467
1.425557	335.426727
1.425629	363.657501
1.425702	391.879211
1.425775	391.816437
1.425848	351.366730
1.425920	395.729004
1.425993	359.329010
1.426066	391.565521
1.426139	383.430573
1.426212	423.723846
1.426284	375.238159
1.426357	350.973022
1.426430	354.950348
1.426503	358.926361
1.426576	354.836639
1.426649	387.032532
1.426722	399.063385
1.426795	398.999481
1.426867	370.727997
1.426940	390.813660
1.427013	378.665985
1.427086	402.771637
1.427159	402.707123
1.427232	390.563354
1.427305	390.500824
1.427378	406.538818
1.427451	446.718628
1.427524	358.122437
1.427597	386.227509
1.427670	366.052856
1.427743	349.906555
1.427817	357.893066
1.427890	337.732605
1.427963	397.978241
1.428036	377.817810
1.428109	417.944244
1.428182	421.895355
1.428255	393.705933
1.428328	433.810516
1.428401	437.757141
1.428475	409.578674
1.428548	397.468597
1.428621	421.490082
1.428694	385.300629
1.428768	361.161469
1.428841	401.226257
1.428914	373.080658
1.428987	453.240448
1.429061	437.126495
1.429134	412.998322
1.429207	376.850708
1.429280	408.857605
1.429354	440.854248
1.429427	432.769379
1.429500	364.589874
1.429574	352.513947
1.429647	448.582245
1.429720	452.514954
1.429794	456.446381
1.429867	352.288147
1.429941	408.268555
1.430014	484.241028
1.430088	388.131012
1.430161	408.072388
1.430234	432.007446
1.430308	411.941101
1.430381	363.889648
1.430455	447.792450
1.430528	423.735687
1.430602	431.661530
1.430676	451.573517
1.430749	451.501160
1.430823	439.444000
1.430896	371.470428
1.430970	367.417236
1.431043	403.295624
1.431117	427.185333
1.431190	447.075623
1.431264	474.941742
1.431338	411.018188
1.431411	426.911652
1.431485	458.756775
1.431559	414.809204
1.431632	462.597687
1.431706	450.561768
1.431780	466.436127
1.431854	422.515442
1.431927	450.345245
1.432001	506.059143
1.432075	470.121368
1.432149	446.145386
1.432222	398.280273
1.432296	362.376984
1.432370	414.078766
1.432444	493.630219
1.432518	402.005341
1.432591	461.635132
1.432665	405.855499
1.432739	429.660522
1.432813	445.502472
1.432887	441.454041
1.432961	401.619049
1.433035	461.191528
1.433109	457.142487
1.433183	453.094727
1.433256	397.387817
1.433330	409.243866
1.433404	496.575623
1.433478	417.056671
1.433552	448.760498
1.433626	448.688599
1.433700	492.287354
1.433774	452.514252
1.433849	432.597809
1.433923	412.687714
1.433997	396.751526
1.434071	472.058685
1.434145	436.286835
1.434219	487.769836
1.434293	495.621613
1.434367	483.649200
1.434441	463.753174
1.434515	483.494202
1.434590	431.905090
1.434664	443.721283
1.434738	423.844360
1.434812	542.592285
1.434886	463.307465
1.434960	467.192474
1.435035	475.034851
1.435109	439.336823
1.435183	514.456177
1.435258	514.373718
1.435332	466.818237
1.435406	435.099823
1.435480	438.984894
1.435555	482.410583
1.435629	513.961670
1.435703	478.303070
1.435778	474.274109
1.435852	450.488220
1.435926	426.709900
1.436001	466.145355
1.436075	505.568176
1.436149	465.995941
1.436224	513.303101
1.436298	485.585846
1.436373	513.138550
1.436447	473.590454
1.436522	481.406464
1.436596	430.040131
1.436671	473.362793
1.436745	485.119080
1.436820	485.041321
1.436894	540.162720
1.436969	532.191772
1.437043	496.632721
1.437118	532.021179
1.437192	520.115112
1.437267	480.635437
1.437342	472.680389
1.437416	492.296478
1.437491	496.155304
1.437566	519.698425
1.437640	464.504425
1.437715	468.365814
1.437790	448.614655
1.437864	511.496124
1.437939	476.008545
1.438014	534.932129
1.438088	495.519409
1.438163	515.100281
1.438238	511.086304
1.438313	475.627136
1.438387	491.271576
1.438462	526.558716
1.438537	518.616455
1.438612	498.891937
1.438686	479.173676
1.438761	428.045563
1.438836	518.283997
1.438911	565.310120
1.438986	525.968140
1.439061	541.581848
1.439136	521.875610
1.439211	498.252472
1.439285	533.476135
1.439360	529.468628
1.439435	498.012878
1.439510	595.951355
1.439585	540.974365
1.439660	454.659149
1.439735	497.693573
1.439810	458.431580
1.439885	485.781219
1.439960	520.955994
1.440035	575.701172
1.440110	509.041840
1.440185	489.384827
1.440260	540.194214
1.440335	587.073486
1.440410	563.500183
1.440486	520.371582
1.440561	524.200073
1.440636	590.608398
1.440711	477.103760
1.440786	551.318420
1.440861	559.048889
1.440936	527.688782
1.441012	519.787842
1.441087	535.334656
1.441162	546.969604
1.441237	550.788208
1.441313	554.605530
1.441388	515.466187
1.441463	534.905579
1.441538	566.050171
1.441614	530.830872
1.441689	561.966125
1.441764	530.660645
1.441840	565.687195
1.441915	518.788513
1.441990	565.505798
1.442066	522.521545
1.442141	530.235291
1.442216	549.641113
1.442292	611.913574
1.442367	615.712341
1.442443	557.169250
1.442518	576.558228
1.442593	572.570740
1.442669	584.162170
1.442744	537.343018
1.442820	548.936340
1.442895	615.021484
1.442971	548.760254
1.443046	556.454834
1.443122	599.162903
1.443197	525.156006
1.443273	622.307251
1.443349	544.431519
1.443424	563.785095
1.443500	606.457703
1.443575	583.038879
1.443651	579.059021
1.443727	582.851868
1.443802	505.057251
1.443878	578.780457
1.443953	594.222839
1.444029	535.879761
1.444105	582.384521
1.444181	558.999512
1.444256	547.265869
1.444332	648.076172
1.444408	574.250793
1.444483	539.243652
1.444559	612.854858
1.444635	601.121948
1.444711	593.270386
1.444787	585.421265
1.444862	627.967102
1.444938	581.357727
1.445014	592.889771
1.445090	623.790466
1.445166	573.330322
1.445241	596.477722
1.445317	577.018982
1.445393	596.286377
1.445469	561.348389
1.445545	630.931763
1.445621	619.220154
1.445697	545.600220
1.445773	642.234802
1.445849	599.580872
1.445925	642.028748
1.446001	576.186340
1.446077	618.624329
1.446153	637.854004
1.446229	595.234863
1.446305	595.139343
1.446381	641.410950
1.446457	614.264893
1.446533	722.321411
1.446609	614.067810
1.446685	590.800659
1.446761	629.314087
1.446838	671.675293
1.446914	602.095032
1.446990	594.280518
1.447066	594.185120
1.447142	617.236145
1.447218	694.279236
1.447294	686.454895
1.447371	632.362549
1.447447	632.261047
1.447523	585.904053
1.447599	686.014343
1.447676	612.689758
1.447752	612.591431
1.447828	728.057861
1.447904	666.316406
1.447981	631.551208
1.448057	616.048645
1.448133	627.498840
1.448210	592.756470
1.448286	619.600525
1.448362	642.588074
1.448439	650.179382
1.448515	646.228455
1.448592	688.430481
1.448668	684.474670
1.448745	638.227844
1.448821	607.372375
1.448897	657.240540
1.448974	626.391907
1.449050	595.553162
1.449127	641.557495
1.449203	668.341858
1.449280	591.426025
1.449356	668.127319
1.449433	641.145691
1.449510	652.558533
1.449586	660.129700
1.449663	671.535828
1.449739	690.611694
1.449816	667.484131
1.449892	667.376953
1.449969	613.581482
1.450046	651.825684
1.450122	663.221985
1.450199	709.112000
1.450276	636.182129
1.450352	628.416382
1.450429	639.809082
1.450506	609.061768
1.450583	670.243347
1.450659	631.842285
1.450736	677.685669
1.450813	646.951904
1.450889	700.433105
1.450966	738.589539
1.451043	692.555664
1.451120	680.967529
1.451197	707.633484
1.451273	615.733521
1.451350	669.168091
1.451427	688.176697
1.451504	695.711426
1.451581	684.133789
1.451658	684.023926
1.451735	634.244385
1.451812	725.825806
1.451889	691.333557
1.451966	691.222534
1.452043	740.749390
1.452119	698.635925
1.452196	694.706726
1.452273	637.348267
1.452350	656.325195
1.452428	759.231018
1.452505	663.743652
1.452582	713.219177
1.452659	705.477844
1.452736	712.990112
1.452813	670.941772
1.452890	769.934509
1.452967	716.457642
1.453044	712.532227
1.453121	700.988647
1.453198	716.112488
1.453276	754.082458
1.453353	715.882507
1.453430	715.767578
1.453507	727.072571
1.453584	734.567932
1.453662	734.449951
1.453739	681.064392
1.453816	753.235168
1.453893	745.506958
1.453971	726.372253
1.454048	703.441284
1.454125	726.138916
1.454202	691.811829
1.454280	779.113464
1.454357	729.589050
1.454434	752.267822
1.454512	717.958496
1.454589	767.218628
1.454666	668.360352
1.454744	717.612610
1.454821	683.330811
1.454899	740.156128
1.454976	717.266846
1.455053	728.534973
1.455131	777.737915
1.455208	819.338562
1.455286	758.524963
1.455363	769.779175
1.455441	796.195312
1.455518	720.251465
1.455596	727.716125
1.455673	738.967957
1.455751	765.372070
1.455829	784.190918
1.455906	795.428162
1.455984	677.898926
1.456061	689.149597
1.456139	742.041870
1.456217	798.702454
1.456294	828.851807
1.456372	768.172974
1.456450	790.750549
1.456527	767.926147
1.456605	839.666077
1.456683	786.587769
1.456760	771.337158
1.456838	737.189087
1.456916	755.969910
1.456994	816.316284
1.457071	759.505615
1.457149	823.610046
1.457227	804.590576
1.457305	774.246765
1.457383	819.436829
1.457460	838.183167
1.457538	864.473450
1.457616	826.590637
1.457694	792.493774
1.457772	762.181030
1.457850	784.693970
1.457928	833.603333
1.458005	799.527222
1.458084	822.023193
1.458161	821.891113
1.458239	738.829224
1.458317	727.403687
1.458395	817.726562
1.458473	862.807800
1.458551	892.806030
1.458629	839.931396
1.458707	798.371460
1.458785	790.712524
1.458863	824.467712
1.458941	858.211975
1.459020	846.783569
1.459098	820.307312
1.459176	820.175476
1.459254	846.375305
1.459332	823.672913
1.459410	879.947388
1.459488	834.687683
1.459566	887.182983
1.459645	898.316345
1.459723	811.736938
1.459801	800.334167
1.459879	807.719177
1.459957	833.882935
1.460036	818.726379
1.460114	919.980347
1.460192	825.971985
1.460271	852.115906
1.460349	908.277100
1.460427	851.841919
1.460505	892.977051
1.460584	952.855896
1.460662	858.932739
1.460740	881.295837
1.460819	926.149231
1.460897	843.522583
1.460976	835.890198
1.461054	891.972534
1.461132	918.059387
1.461211	887.939148
1.461289	906.526245
1.461368	865.181396
1.461446	898.745178
1.461525	868.647339
1.461603	883.481934
1.461682	834.681274
1.461760	898.167236
1.461839	924.215149
1.461917	886.654968
1.461996	916.436829
1.462074	931.249268
1.462153	979.711121
1.462232	957.121094
1.462310	953.229004
1.462389	930.650391
1.462467	911.815979
1.462546	915.405640
1.462625	870.429443
1.462703	911.376099
1.462782	929.902283
1.462861	914.816895
1.462940	925.869812
1.463018	903.324402
1.463097	966.625610
1.463176	910.496948
1.463254	917.812378
1.463333	951.237854
1.463412	902.598206
1.463491	928.557007
1.463570	924.679138
1.463648	898.434753
1.463727	883.380859
1.463806	920.506226
1.463885	938.988892
1.463964	961.191101
1.464043	912.612183
1.464122	960.881897
1.464200	945.832336
1.464279	960.572754
1.464358	919.470154
1.464437	941.653992
1.464516	945.223816
1.464595	959.954773
1.464674	1023.042969
1.464753	974.524170
1.464832	944.615662
1.464911	922.153564
1.464990	1011.231506
1.465069	929.291138
1.465148	996.039856
1.465227	981.015686
1.465307	977.142517
1.465386	917.548889
1.465465	961.971375
1.465544	1010.093079
1.465623	905.967102
1.465702	998.630920
1.465781	1031.876221
1.465861	1013.154297
1.465940	979.595947
1.466019	953.468323
1.466098	1034.921631
1.466177	960.579102
1.466257	1060.546021
1.466336	975.100403
1.466415	945.287354
1.466494	1008.144287
1.466574	1026.511108
1.466653	989.293701
1.466732	1018.771484
1.466812	1129.728271
1.466891	981.409241
1.466970	1007.171143
1.467050	1036.626953
1.467129	977.233826
1.467209	1025.190186
1.467288	1010.223328
1.467367	1010.060730
1.467447	972.905518
1.467526	1080.010254
1.467606	1013.271118
1.467685	1090.755005
1.467765	1072.094971
1.467844	1086.707520
1.467924	997.836121
1.468003	1038.321533
1.468083	1052.932373
1.468162	1037.987183
1.468242	1063.673340
1.468321	1041.345825
1.468401	1063.330811
1.468481	1070.542725
1.468560	1107.279663
1.468640	1029.604370
1.468719	1066.336060
1.468799	1025.583740
1.468879	1025.418579
1.468958	1032.629395
1.469038	1058.274658
1.469118	1094.972046
1.469198	1032.130737
1.469277	1113.047363
1.469357	1076.018311
1.469437	1090.582642
1.469517	1020.414673
1.469596	1075.498535
1.469676	1049.546997
1.469756	1075.152222
1.469836	1119.156250
1.469916	1107.933594
1.469995	1067.272461
1.470075	1111.256470
1.470155	1055.891479
1.470235	1092.506226
1.470315	1118.075439
1.470395	1147.313599
1.470475	1125.068726
1.470555	1165.324585
1.470635	1080.600220
1.470715	1175.973999
1.470795	1146.390015
1.470875	1135.184204
1.470955	1090.923584
1.471035	1189.906860
1.471115	1083.228271
1.471195	1119.767456
1.471275	1130.599487
1.471355	1218.501831
1.471435	1155.922485
1.471515	1137.391235
1.471595	1173.892090
1.471675	1192.042114
1.471755	1147.843384
1.471835	1099.992188
1.471915	1125.477295
1.471996	1099.637695
1.472076	1106.790283
1.472156	1135.926270
1.472236	1099.106323
1.472317	1179.517456
1.472397	1223.277466
1.472477	1197.447021
1.472557	1156.979492
1.472638	1138.489380
1.472718	1149.286377
1.472798	1185.696777
1.472878	1170.869873
1.472959	1141.414185
1.473039	1163.177002
1.473119	1115.446045
1.473200	1159.145630
1.473280	1199.175049
1.473361	1231.880737
1.473441	1217.062866
1.473521	1194.941162
1.473602	1227.631592
1.473682	1333.373047
1.473763	1230.888550
1.473843	1216.082520
1.473924	1197.630005
1.474004	1139.025391
1.474084	1178.993286
1.474165	1302.887939
1.474246	1226.049805
1.474326	1196.665283
1.474407	1167.290161
1.474487	1243.693115
1.474568	1236.199341
1.474648	1243.292236
1.474729	1210.282959
1.474810	1199.153320
1.474890	1268.200928
1.474971	1267.996460
1.475052	1242.290527
1.475132	1209.307861
1.475213	1238.248169
1.475294	1267.179077
1.475374	1219.645264
1.475455	1252.209961
1.475536	1193.775146
1.475617	1222.694580
1.475697	1215.220703
1.475778	1236.851562
1.475859	1196.642822
1.475940	1261.909180
1.476020	1218.073242
1.476101	1254.231323
1.476182	1323.091675
1.476263	1206.581299
1.476344	1257.258545
1.476425	1275.221313
1.476506	1209.630249
1.476587	1191.275635
1.476668	1194.714844
1.476748	1194.522217
1.476829	1270.563354
1.476910	1342.950439
1.476991	1244.750610
1.477072	1277.205688
1.477153	1229.837769
1.477234	1302.184570
1.477315	1243.947876
1.477396	1225.616821
1.477477	1428.447266
1.477558	1301.344849
1.477640	1250.394287
1.477721	1398.766235
1.477802	1307.961670
1.477883	1293.260376
1.477964	1271.319824
1.478045	1260.250488
1.478126	1285.393066
1.478207	1343.109619
1.478289	1371.850220
1.478370	1364.390747
1.478451	1284.563965
1.478532	1407.365601
1.478613	1399.903931
1.478695	1472.012817
1.478776	1453.694580
1.478857	1363.070801
1.478938	1286.936157
1.479020	1308.415039
1.479101	1333.500732
1.479182	1286.313477
1.479264	1398.098267
1.479345	1408.708984
1.479427	1390.424194
1.479508	1364.923584
1.479589	1292.496826
1.479671	1368.092896
1.479752	1284.861450
1.479833	1302.697021
1.479915	1428.766724
1.479996	1374.425049
1.480078	1385.023682
1.480159	1323.494019
1.480241	1420.633423
1.480322	1431.219482
1.480404	1369.711914
1.480485	1333.451660
1.480567	1455.750122
1.480649	1329.418579
1.480730	1394.043335
1.480812	1386.615112
1.480893	1353.982178
1.480975	1454.575928
1.481057	1421.942505
1.481138	1367.723877
1.481220	1450.273071
1.481301	1392.469238
1.481383	1453.402466
1.481465	1374.035034
1.481547	1478.107910
1.481628	1431.124146
1.481710	1430.893188
1.481792	1463.013794
1.481874	1509.500366
1.481955	1440.980713
1.482037	1501.827271
1.482119	1544.692505
1.482201	1461.833374
1.482283	1429.277100
1.482364	1421.865234
1.482446	1486.255493
1.482528	1507.552002
1.482610	1460.653809
1.482692	1478.359253
1.482774	1517.584961
1.482856	1488.643311
1.482938	1438.191772
1.483020	1434.373657
1.483102	1398.288452
1.483184	1494.851685
1.483266	1516.115479
1.483347	1472.867310
1.483429	1526.375000
1.483512	1526.128540
1.483593	1407.680054
1.483676	1500.566650
1.483758	1579.100342
1.483840	1521.562988
1.483922	1503.419434
1.484004	1567.598511
1.484086	1553.031616
1.484168	1452.601440
1.484250	1602.611694
1.484332	1559.432739
1.484415	1491.234863
1.484497	1580.382202
1.484579	1515.777954
1.484661	1544.128052
1.484743	1547.452393
1.484826	1554.348999
1.484908	1511.226196
1.484990	1493.121826
1.485072	1546.452881
1.485155	1546.203125
1.485237	1599.508301
1.485319	1659.935791
1.485402	1516.900513
1.485484	1570.184570
1.485566	1609.179077
1.485649	1591.081909
1.485731	1590.824951
1.485813	1651.194946
1.485896	1658.059570
1.485978	1639.966064
1.486061	1593.361694
1.486143	1607.360229
1.486226	1585.720093
1.486308	1710.163208
1.486391	1652.890747
1.486473	1645.500244
1.486556	1627.428833
1.486638	1648.529053
1.486721	1662.502563
1.486803	1676.471436
1.486886	1601.465576
1.486968	1654.580322
1.487051	1668.543579
1.487134	1771.429443
1.487216	1767.586670
1.487299	1710.406128
1.487382	1656.799194
1.487464	1702.743652
1.487547	1738.010620
1.487630	1638.227905
1.487712	1790.744873
1.487795	1587.963501
1.487878	1690.712402
1.487960	1676.233765
1.488043	1615.599854
1.488126	1718.294312
1.488209	1764.161621
1.488292	1653.856079
1.488374	1706.815796
1.488457	1674.608765
1.488540	1716.906006
1.488623	1720.175293
1.488706	1808.551636
1.488789	1655.798218
1.488872	1648.440430
1.488954	1807.674683
1.489037	1669.170898
1.489120	1736.223999
1.489203	1707.601318
1.489286	1725.036133
1.489369	1756.631592
1.489452	1720.937378
1.489535	1819.791748
1.489618	1699.141602
1.489701	1695.327637
1.489784	1783.521851
1.489867	1698.317505
1.489950	1761.719482
1.490033	1644.713135
1.490116	1775.295654
1.490200	1810.367310
1.490283	1746.439087
1.490366	1795.642822
1.490449	1781.215820
1.490532	1809.196533
1.490615	1731.177612
1.490699	1762.689575
1.490782	1727.085815
1.490865	1846.870728
1.490948	1839.510498
1.491031	1860.393921
1.491115	1821.267578
1.491198	1859.792236
1.491281	1785.394043
1.491364	1880.357910
1.491448	1791.871094
1.491531	1752.787109
1.491614	1897.076416
1.491698	1932.025391
1.491781	1903.512695
1.491865	1931.400391
1.491948	1765.465454
1.492031	1832.122803
1.492115	1937.508667
1.492198	1877.318237
1.492282	1884.057739
1.492365	1880.231934
1.492448	1918.652832
1.492532	1844.424561
1.492615	1872.280762
1.492699	1907.165405
1.492782	1949.075073
1.492866	1885.442627
1.492949	1899.205688
1.493033	1912.964233
1.493117	1891.559326
1.493200	1908.829834
1.493284	1894.461914
1.493367	1830.899658
1.493451	1974.662354
1.493535	1963.803589
1.493618	1882.698364
1.493702	1857.810181
1.493786	1966.361694
1.493869	2025.726929
1.493953	1993.807007
1.494037	1867.136719
1.494121	1989.652588
1.494204	2003.364624
1.494288	1838.166626
1.494372	1904.509399
1.494456	1946.282959
1.494539	1970.511597
1.494623	1854.505127
1.494707	1931.317505
1.494791	2008.104858
1.494875	2025.299683
1.494959	1968.917236
1.495043	1986.112671
1.495126	2052.334473
1.495210	2006.479858
1.495294	2083.180176
1.495378	2117.848633
1.495462	2135.005859
1.495546	1942.190796
1.495630	1952.373047
1.495714	2088.490967
1.495798	2011.202393
1.495882	2091.311768
1.495966	1989.571533
1.496050	2038.193970
1.496134	2020.386475
1.496219	1946.666138
1.496303	2096.607910
1.496387	1998.442505
1.496471	2022.571289
1.496555	2071.140869
1.496639	2084.773682
1.496723	2046.029419
1.496807	2105.044189
1.496892	2150.078369
1.496976	2058.994873
1.497060	2097.043213
1.497144	2093.214844
1.497229	2092.875732
1.497313	2043.710815
1.497397	2120.093750
1.497481	2151.128174
1.497566	2095.005859
1.497650	2021.475220
1.497734	1968.876709
1.497819	2153.218750
1.497903	2145.902832
1.497987	2152.521240
1.498072	2183.514893
1.498156	2130.932373
1.498240	2158.437988
1.498325	2137.203613
1.498409	2112.495605
1.498494	2021.682251
1.498578	2170.955811
1.498663	2073.205078
1.498747	2072.869141
1.498832	2145.558838
1.498916	2173.025879
1.499001	2110.100830
1.499085	2214.030273
1.499170	2168.494629
1.499254	2195.939941
1.499339	2185.161865
1.499424	2191.754639
1.499508	2174.034912
1.499593	2184.099609
1.499678	2201.104492
1.499762	2145.208496
1.499847	2280.216064
1.499931	2158.393555
1.500016	2289.885498
1.500101	2234.010986
1.500186	2164.281006
1.500270	2205.544189
1.500355	2173.981201
1.500440	2284.563477
1.500525	2304.990234
1.500609	2266.495117
1.500694	2262.662598
1.500779	2193.006348
1.500864	2324.279297
1.500949	2206.148926
1.501033	2157.312256
1.501118	2236.593506
1.501203	2319.310791
1.501288	2211.640625
1.501373	2221.663574
1.501458	2293.962891
1.501543	2438.886230
1.501628	2307.054443
1.501713	2299.763916
1.501798	2320.137207
1.501883	2295.560791
1.501968	2367.777344
1.502053	2122.013916
1.502138	2432.663818
1.502223	2314.801758
1.502308	2324.789551
1.502393	2386.581055
1.502478	2237.704346
1.502563	2427.239258
1.502648	2478.627441
1.502734	2343.614258
1.502819	2412.254150
1.502904	2318.700928
1.502989	2287.275879
1.503074	2317.948730
1.503160	2331.367920
1.503245	2344.782471
1.503330	2385.773926
1.503415	2361.257324
1.503500	2295.390137
1.503586	2391.505127
1.503671	2398.007812
1.503756	2366.615234
1.503842	2535.001709
1.503927	2524.259277
1.504012	2441.213379
1.504098	2402.948486
1.504183	2364.696045
1.504268	2343.663330
1.504354	2391.456055
1.504439	2487.398926
1.504525	2507.634277
1.504610	2379.974365
1.504696	2517.136719
1.504781	2389.516602
1.504866	2440.692627
1.504952	2474.666992
1.505037	2436.464111
1.505123	2422.324951
1.505208	2480.333008
1.505294	2445.582520
1.505380	2493.265137
1.505465	2465.390869
1.505551	2482.156250
1.505636	2505.781494
1.505722	2488.214600
1.505808	2350.552246
1.505893	2446.236084
1.505979	2459.560547
1.506065	2606.642334
1.506150	2534.205078
1.506236	2468.648926
1.506322	2595.088623
1.506407	2663.218750
1.506493	2652.505371
1.506579	2491.031250
1.506665	2548.867188
1.506750	2479.946533
1.506836	2585.712158
1.506922	2465.444336
1.507008	2547.212158
1.507094	2683.723389
1.507180	2539.540039
1.507266	2706.805908
1.507351	2572.929688
1.507437	2517.777588
1.507523	2650.761963
1.507609	2677.689941
1.507695	2550.743652
1.507781	2632.377441
1.507867	2690.057861
1.507953	2672.533203
1.508039	2733.605225
1.508125	2555.505859
1.508211	2551.674805
1.508297	2537.599121
1.508383	2670.363525
1.508469	2666.515625
1.508555	2727.528809
1.508641	2720.259521
1.508727	2695.929688
1.508814	2671.607666
1.508900	2701.876709
1.508986	2732.135986
1.509072	2711.229980
1.509158	2703.969971
1.509244	2713.758301
1.509331	2665.595703
1.509417	2620.856934
1.509503	2691.990479
1.509589	2708.588135
1.509676	2701.335205
1.509762	2714.519775
1.509848	2731.105713
1.509934	2740.876221
1.510021	2747.239502
1.510107	2750.196777
1.510193	2732.734131
1.510280	2633.614502
1.510366	2721.639893
1.510453	2836.848389
1.510539	2751.363770
1.510625	2771.319092
1.510712	2781.068115
1.510798	2804.411133
1.510885	2712.189453
1.510971	2881.657715
1.511058	2752.079346
1.511144	2778.808838
1.511231	2730.805664
1.511317	2815.261230
1.511404	2937.038574
1.511490	2793.976807
1.511577	2810.494141
1.511663	2806.643555
1.511750	2843.512451
1.511837	2863.406250
1.511923	2842.588135
1.512010	2842.125977
1.512097	2838.272949
1.512183	2827.640137
1.512270	2874.638916
1.512357	2908.065186
1.512443	2910.980957
1.512530	2869.848633
1.512617	2825.342041
1.512703	2912.948486
1.512790	2926.020996
1.512877	3003.424316
1.512964	2941.997070
1.513051	2860.279785
1.513137	3012.112549
1.513224	2883.036621
1.513311	3000.982910
1.513398	2878.716064
1.513485	3020.300049
1.513572	2891.306396
1.513659	3049.747559
1.513746	2951.215576
1.513833	2808.775879
1.513919	2984.050049
1.514006	2966.670166
1.514093	3101.321533
1.514180	2918.416016
1.514267	2951.713623
1.514354	3008.637451
1.514441	2994.643311
1.514529	3078.546143
1.514616	3132.046143
1.514703	3077.544434
1.514790	2918.468018
1.514877	3036.062256
1.514964	3032.195557
1.515051	2957.511475
1.515138	3145.848389
1.515225	3094.768555
1.515313	3050.446289
1.515400	3009.508545
1.515487	3002.279785
1.515574	3133.182617
1.515661	3045.092773
1.515749	3064.804688
1.515836	3175.428955
1.515923	3036.872559
1.516011	3016.180664
1.516098	3099.833008
1.516185	3190.188232
1.516273	3071.906982
1.516360	3064.678711
1.516447	3232.356689
1.516535	3241.919434
1.516622	3194.317627
1.516709	3170.264404
1.516797	3223.529785
1.516884	3276.777832
1.516972	3098.151123
1.517059	3168.200439
1.517147	3238.227051
1.517234	3251.134277
1.517322	3227.098389
1.517409	3169.495117
1.517497	3299.900879
1.517584	3302.720215
1.517672	3231.708984
1.517759	3187.563477
1.517847	3190.399170
1.517935	3277.089844
1.518022	3397.289062
1.518110	3396.735840
1.518197	3238.610596
1.518285	3352.052979
1.518373	3254.313232
1.518461	3253.783203
1.518548	3229.800537
1.518636	3329.770508
1.518724	3553.632812
1.518811	3368.871338
1.518899	3411.849609
1.518987	3304.167725
1.519075	3270.158203
1.519163	3326.517578
1.519250	3352.744141
1.519338	3325.434082
1.519426	3388.446533
1.519514	3364.483643
1.519602	3297.058105
1.519690	3510.493896
1.519778	3386.239014
1.519865	3449.189697
1.519953	3304.935059
1.520041	3401.289795
1.520129	3450.844727
1.520217	3386.821289
1.520305	3563.263916
1.520393	3372.361816
1.520481	3411.873291
1.520569	3468.061523
1.520657	3464.158936
1.520745	3430.226318
1.520833	3519.746094
1.520922	3412.429932
1.521010	3365.181396
1.521098	3521.360107
1.521186	3464.106934
1.521274	3526.879395
1.521362	3589.631592
1.521450	3469.078369
1.521539	3508.495605
1.521627	3544.568848
1.521715	3583.960693
1.521803	3436.844482
1.521892	3682.684326
1.521980	3488.990967
1.522068	3704.784424
1.522156	3554.415527
1.522245	3513.905273
1.522333	3553.256836
1.522421	3526.065674
1.522510	3525.490723
1.522598	3558.169678
1.522686	3590.838135
1.522775	3719.900635
1.522863	3749.208008
1.522952	3672.162354
1.523040	3618.400635
1.523129	3494.891357
1.523217	3819.838135
1.523306	3742.831055
1.523394	3609.399902
1.523483	3668.570801
1.523571	3674.611328
1.523660	3700.563232
1.523748	3650.184326
1.523837	3851.975342
1.523925	3748.511719
1.524014	3601.964355
1.524102	3727.391846
1.524191	3740.046387
1.524280	3689.709717
1.524368	3616.187500
1.524457	3668.621826
1.524546	3837.010986
1.524634	3796.629639
1.524723	3733.074707
1.524812	3815.262207
1.524901	3781.526367
1.524989	3817.328125
1.525078	3968.976074
1.525167	3855.798828
1.525256	3835.314697
1.525344	3914.095703
1.525433	3863.835938
1.525522	3793.747070
1.525611	3819.583984
1.525700	3809.041260
1.525789	3877.843994
1.525878	3784.660400
1.525967	3830.310547
1.526055	3866.032715
1.526144	3918.261963
1.526233	3911.015869
1.526322	3916.982910
1.526411	3823.883545
1.526500	3849.672363
1.526589	4053.709961
1.526678	3805.508789
1.526767	3811.487549
1.526857	4035.227783
1.526946	4034.569092
1.527035	3944.854492
1.527124	3993.677979
1.527213	4009.512451
1.527302	4038.528564
1.527391	4123.570801
1.527480	4066.871094
1.527570	4026.665283
1.527659	4065.543213
1.527748	4041.820801
1.527837	4011.519043
1.527926	4027.328857
1.528016	4046.426025
1.528105	4049.057129
1.528194	4173.468262
1.528283	4083.934082
1.528373	4066.815430
1.528462	4115.497559
1.528551	3970.099609
1.528641	4156.906738
1.528730	4179.244629
1.528819	4116.097168
1.528909	4062.831787
1.528998	4256.074219
1.529088	4202.802734
1.529177	4126.550293
1.529267	4178.435059
1.529356	4401.091797
1.529446	4186.921875
1.529535	4153.404297
1.529624	4221.664551
1.529714	4345.700195
1.529804	4322.018066
1.529893	4396.779297
1.529983	4386.218750
1.530072	4257.578125
1.530162	4270.000488
1.530252	4351.278809
1.530341	4380.074219
1.530431	4415.416016
1.530520	4195.106934
1.530610	4276.343750
1.530700	4341.171875
1.530789	4271.669922
1.530879	4421.635254
1.530969	4397.989258
1.531059	4446.383789
1.531149	4367.088379
1.531238	4389.286621
1.531328	4548.927246
1.531418	4410.756348
1.531508	4354.419434
1.531597	4504.173828
1.531687	4506.708008
1.531777	4568.100098
1.531867	4345.033691
1.531957	4488.153809
1.532047	4448.199707
1.532137	4512.828613
1.532227	4466.349121
1.532317	4439.484863
1.532407	4409.363281
1.532497	4565.394043
1.532587	4541.791504
1.532677	4423.523438
1.532767	4517.458008
1.532857	4585.253418
1.532947	4679.130371
1.533037	4730.564453
1.533127	4462.312988
1.533217	4415.923340
1.533307	4578.244141
1.533397	4629.660645
1.533487	4540.889160
1.533577	4628.145996
1.533668	4712.116211
1.533758	4779.767090
1.533848	4596.556641
1.533938	4559.976074
1.534029	4702.520508
1.534119	4711.519531
1.534209	4883.291504
1.534299	4674.172852
1.534390	4741.751953
1.534480	4623.834473
1.534570	4789.001465
1.534661	4859.780762
1.534751	4761.415527
1.534841	4880.953125
1.534932	5032.964355
1.535022	4915.114258
1.535112	4712.797363
1.535203	4832.263672
1.535293	4984.182617
1.535384	4804.693359
1.535474	4800.659180
1.535565	4978.488281
1.535655	4938.709473
1.535746	4924.915039
1.535836	4842.960449
1.535927	4926.548828
1.536017	4948.456543
1.536108	5064.443359
1.536198	4943.592773
1.536289	4829.268066
1.536380	5052.228516
1.536470	4889.289551
1.536561	5082.991211
1.536652	5121.053223
1.536742	5010.033203
1.536833	5038.374023
1.536924	4995.434570
1.537014	5001.094727
1.537105	4971.128906
1.537196	5070.692871
1.537287	5053.675293
1.537377	5101.401367
1.537468	5055.256836
1.537559	4989.711426
1.537650	5005.070801
1.537741	5208.044434
1.537832	5223.362793
1.537922	5093.157227
1.538013	5357.447266
1.538104	5175.539062
1.538195	5210.245117
1.538286	5319.267090
1.538377	5163.303223
1.538468	5210.916016
1.538559	5184.222168
1.538650	5225.356445
1.538741	5243.874512
1.538832	5236.558594
1.538923	5468.111328
1.539014	5296.163574
1.539105	5266.253906
1.539196	5239.580078
1.539287	5238.721680
1.539378	5302.369141
1.539469	5295.050781
1.539561	5226.474609
1.539652	5370.684570
1.539743	5327.903320
1.539834	5233.573242
1.539925	5467.930176
1.540017	5467.034180
1.540108	5282.537598
1.540199	5494.227051
1.540290	5445.026855
1.540382	5611.546875
1.540473	5507.621094
1.540564	5477.752441
1.540655	5460.765137
1.540747	5681.868164
1.540838	5629.467285
1.540930	5525.622559
1.541021	5585.816895
1.541112	5482.012695
1.541204	5532.549805
1.541295	5583.069824
1.541386	5717.128906
1.541478	5703.339355
1.541569	5708.829102
1.541661	5659.711914
1.541752	5755.130859
1.541844	5731.709961
1.541935	5926.611328
1.542027	5752.300293
1.542119	5603.721680
1.542210	5654.145508
1.542302	5778.346680
1.542393	5671.538574
1.542485	5757.207031
1.542577	5813.985840
1.542668	5909.221680
1.542760	5927.486816
1.542852	5907.283203
1.542943	5784.534668
1.543035	5632.988281
1.543127	5744.192871
1.543218	5989.893555
1.543310	5934.466309
1.543402	6039.162109
1.543494	5855.681152
1.543586	6001.969238
1.543677	6052.192871
1.543769	6003.199707
1.543861	5992.616211
1.543953	6103.596191
1.544045	6118.586914
1.544137	6002.458496
1.544228	6190.118652
1.544320	6256.236816
1.544412	6120.964844
1.544504	6190.267578
1.544596	6147.713379
1.544688	6252.131348
1.544780	6097.782227
1.544872	6240.498047
1.544964	6146.871582
1.545056	6327.844238
1.545148	6154.430176
1.545240	6204.485840
1.545332	6203.467285
1.545425	6164.162598
1.545517	6332.222656
1.545609	6203.602539
1.545701	6317.387695
1.545793	6303.596680
1.545885	6273.870117
1.545977	6237.778809
1.546070	6303.679199
1.546162	6379.117188
1.546254	6381.255859
1.546346	6233.683105
1.546439	6532.030762
1.546531	6288.953125
1.546623	6437.556641
1.546715	6258.238770
1.546808	6537.289551
1.546900	6393.017578
1.546993	6366.514160
1.547085	6381.374023
1.547177	6727.013672
1.547270	6484.221680
1.547362	6406.846680
1.547454	6736.416016
1.547547	6560.490234
1.547639	6753.270996
1.547732	6701.321777
1.547824	6519.133789
1.547917	6718.179199
1.548010	6758.362305
1.548102	6766.778320
1.548195	6479.927246
1.548287	6580.442383
1.548380	6861.832520
1.548472	6721.079102
1.548565	6843.713867
1.548658	6623.702637
1.548750	6730.453613
1.548843	6881.566406
1.548936	6750.436523
1.549028	6872.964844
1.549121	6887.683594
1.549214	6747.109375
1.549306	6831.553223
1.549399	6817.757812
1.549492	6870.486328
1.549585	6894.693359
1.549677	6925.225586
1.549770	6952.581543
1.549863	6894.459473
1.549956	6972.450684
1.550049	6987.126953
1.550142	6985.978516
1.550235	7063.915527
1.550327	7034.288086
1.550420	6792.790527
1.550513	6965.576172
1.550606	6894.881348
1.550699	7121.326660
1.550792	7139.117676
1.550885	7046.310059
1.550978	7117.814453
1.551071	7173.500977
1.551164	7320.757812
1.551257	7092.199707
1.551350	7252.049316
1.551444	7162.470215
1.551537	7262.289062
1.551630	7415.720215
1.551723	7354.553223
1.551816	7372.271484
1.551909	7415.215820
1.552002	7335.157227
1.552096	7494.755371
1.552189	7335.896484
1.552282	7378.817871
1.552375	7390.209961
1.552469	7407.899902
1.552562	7211.354004
1.552655	7534.609375
1.552748	7309.762207
1.552842	7557.321289
1.552935	7773.314941
1.553028	7633.530762
1.553122	7594.506348
1.553215	7457.943848
1.553308	7488.179688
1.553402	7571.883301
1.553495	7715.319336
1.553589	7707.759766
1.553682	7646.750977
1.553776	7717.797852
1.553869	7766.818848
1.553963	7690.116211
1.554056	7776.830566
1.554150	7822.675293
1.554243	7576.380371
1.554337	7694.476074
1.554430	7891.034668
1.554524	7704.500977
1.554618	7753.457520
1.554711	7745.903809
1.554805	8114.915039
1.554899	8101.028809
1.554992	7955.393555
1.555086	7866.262695
1.555180	7893.190918
1.555273	8001.631836
1.555367	7893.727051
1.555461	7951.980469
1.555555	8110.499512
1.555648	8052.763184
1.555742	8073.366699
1.555836	8068.904785
1.555930	8346.308594
1.556024	8316.751953
1.556117	8324.774414
1.556211	8201.322266
1.556305	8118.597656
1.556399	8264.334961
1.556493	8297.389648
1.556587	8377.356445
1.556681	8422.891602
1.556775	8249.508789
1.556869	8485.777344
1.556963	8440.613281
1.557057	8442.347656
1.557151	8319.077148
1.557245	8495.808594
1.557339	8647.489258
1.557433	8530.492188
1.557527	8604.040039
1.557621	8814.956055
1.557715	8638.668945
1.557810	8509.263672
1.557904	8670.153320
1.557998	8556.386719
1.558092	8632.975586
1.558186	8556.686523
1.558280	8661.320312
1.558375	8703.550781
1.558469	8661.583008
1.558563	8922.017578
1.558657	8764.702148
1.558752	8744.558594
1.558846	8637.177734
1.558940	8782.175781
1.559035	8771.382812
1.559129	8944.338867
1.559223	8865.019531
1.559318	8882.237305
1.559412	8980.381836
1.559507	8950.890625
1.559601	8971.197266
1.559695	9066.166992
1.559790	9086.446289
1.559884	9050.736328
1.559979	8999.488281
1.560073	9196.992188
1.560168	9198.583984
1.560262	9054.091797
1.560357	9189.334961
1.560452	9044.890625
1.560546	9049.612305
1.560641	9302.821289
1.560735	9248.491211
1.560830	9178.653320
1.560925	9391.355469
1.561019	9464.303711
1.561114	9503.088867
1.561209	9256.380859
1.561303	9270.366211
1.561398	9513.896484
1.561493	9518.529297
1.561588	9495.251953
1.561682	9518.489258
1.561777	9507.618164
1.561872	9471.956055
1.561967	9612.944336
1.562062	9561.783203
1.562157	9572.596680
1.562251	9540.042969
1.562346	9807.899414
1.562441	9899.171875
1.562536	9683.921875
1.562631	9933.048828
1.562726	10027.350586
1.562821	9908.109375
1.562916	9829.127930
1.563011	10016.199219
1.563106	9924.853516
1.563201	10136.583984
1.563296	9952.495117
1.563391	10102.325195
1.563486	10143.927734
1.563581	10111.350586
1.563676	10140.578125
1.563771	10157.439453
1.563866	10112.520508
1.563962	10135.555664
1.564057	10214.163086
1.564152	10243.348633
1.564247	10331.170898
1.564342	10489.946289
1.564438	10389.472656
1.564533	10310.626953
1.564628	10318.178711
1.564723	10322.642578
1.564819	10536.791992
1.564914	10476.471680
1.565009	10465.494141
1.565105	10405.205078
1.565200	10274.058594
1.565295	10491.119141
1.565391	10532.513672
1.565486	10635.496094
1.565582	10510.556641
1.565677	10798.251953
1.565773	10814.938477
1.565868	10628.469727
1.565964	10823.674805
1.566059	10828.041016
1.566154	10567.824219
1.566250	10769.094727
1.566346	10871.881836
1.566441	11260.608398
1.566537	11043.534180
1.566632	11032.486328
1.566728	10959.973633
1.566823	11151.757812
1.566919	11159.132812
1.567015	11280.165039
1.567110	11029.514648
1.567206	11230.373047
1.567302	11274.572266
1.567398	11383.225586
1.567493	11295.400391
1.567589	11238.292969
1.567685	11282.460938
1.567781	11311.274414
1.567876	11438.233398
1.567972	11353.537109
1.568068	11544.839844
1.568164	11457.086914
1.568260	11387.754883
1.568356	11336.834961
1.568452	11718.000977
1.568547	11804.914062
1.568643	11698.808594
1.568739	11739.753906
1.568835	11511.201172
1.568931	11904.269531
1.569027	11663.519531
1.569123	11520.793945
1.569219	11938.146484
1.569315	11942.291992
1.569411	12111.634766
1.569507	11950.576172
1.569603	12046.462891
1.569700	12145.375977
1.569796	12335.972656
1.569892	12126.073242
1.569988	12010.986328
1.570084	12329.850586
1.570180	11952.017578
1.570276	12399.083008
1.570373	12363.435547
1.570469	12413.301758
1.570565	12570.014648
1.570661	12235.190430
1.570758	12648.262695
1.570854	12331.846680
1.570950	12674.588867
1.571047	12724.351562
1.571143	12761.898438
1.571239	12585.955078
1.571336	12641.805664
1.571432	12901.896484
1.571528	12594.946289
1.571625	12995.150391
1.571721	12947.291992
1.571818	12887.261719
1.571914	13107.496094
1.572011	12916.497070
1.572107	12953.945312
1.572204	12933.532227
1.572300	13053.155273
1.572397	13029.688477
1.572493	13289.238281
1.572590	12982.777344
1.572687	13348.720703
1.572783	13249.178711
1.572880	13225.697266
1.572976	13594.458008
1.573073	13266.917969
1.573170	13368.065430
1.573266	13159.194336
1.573363	13409.215820
1.573460	13674.344727
1.573557	13608.291016
1.573653	13745.741211
1.573750	13646.293945
1.573847	13413.292969
1.573944	13802.657227
1.574041	13730.564453
1.574137	13798.083984
1.574234	13638.027344
1.574331	14175.738281
1.574428	13860.986328
1.574525	14258.983398
1.574622	14035.282227
1.574719	14114.807617
1.574816	14194.306641
1.574913	14076.793945
1.575010	14241.112305
1.575107	14296.312500
1.575204	14109.172852
1.575301	14106.833984
1.575398	14128.719727
1.575495	14183.901367
1.575592	14048.361328
1.575689	14711.864258
1.575786	14700.347656
1.575883	14404.436523
1.575980	14762.023438
1.576077	14547.861328
1.576175	14554.520508
1.576272	14657.929688
1.576369	14718.982422
1.576466	14798.149414
1.576563	14771.519531
1.576661	14811.371094
1.576758	14890.481445
1.576855	14990.708984
1.576952	14945.942383
1.577050	14662.651367
1.577147	15303.264648
1.577244	15080.375977
1.577342	15059.767578
1.577439	14987.867188
1.577537	15196.570312
1.577634	15308.675781
1.577731	15544.399414
1.577829	15496.587891
1.577926	15563.361328
1.578024	15413.069336
1.578121	15570.253906
1.578219	15643.007812
1.578316	15565.086914
1.578414	15640.829102
1.578511	15662.330078
1.578609	15542.283203
1.578707	15967.263672
1.578804	15877.309570
1.578902	15673.005859
1.579000	15923.202148
1.579097	16028.882812
1.579195	16029.230469
1.579293	16240.137695
1.579390	16096.089844
1.579488	16108.453125
1.579586	16051.662109
1.579683	16169.237305
1.579781	16100.432617
1.579879	16145.838867
1.579977	16260.333984
1.580075	16521.986328
1.580173	16588.324219
1.580270	16387.371094
1.580368	16552.791016
1.580466	16483.998047
1.580564	16463.251953
1.580662	16547.546875
1.580760	16679.822266
1.580858	16968.052734
1.580956	16971.234375
1.581054	17130.361328
1.581152	17034.562500
1.581250	17040.728516
1.581348	17100.845703
1.581446	16939.162109
1.581544	16996.279297
1.581642	17460.835938
1.581740	17032.570312
1.581838	17392.138672
1.581936	17191.611328
1.582034	17200.730469
1.582132	17299.654297
1.582231	17640.978516
1.582329	17653.009766
1.582427	17668.029297
1.582525	17614.238281
1.582624	17626.265625
1.582722	17799.779297
1.582820	17820.742188
1.582918	17710.156250
1.583017	17871.611328
1.583115	18047.955078
1.583213	18212.287109
1.583312	18352.664062
1.583410	18319.742188
1.583508	18015.052734
1.583607	18295.736328
1.583705	18444.960938
1.583804	18209.056641
1.583902	18271.691406
1.584001	18546.173828
1.584099	18289.484375
1.584198	18871.132812
1.584296	18662.195312
1.584395	18769.429688
1.584493	18760.345703
1.584592	18936.093750
1.584690	19043.228516
1.584789	18867.212891
1.584888	18780.646484
1.584986	19006.916016
1.585085	18848.865234
1.585184	18687.888672
1.585282	19405.373047
1.585381	19047.863281
1.585480	18970.279297
1.585578	19413.548828
1.585677	19493.638672
1.585776	19585.601562
1.585875	19787.595703
1.585974	19650.464844
1.586072	19724.511719
1.586171	19643.927734
1.586270	20047.919922
1.586369	19771.140625
1.586468	19946.154297
1.586567	20225.101562
1.586666	20174.203125
1.586764	20069.859375
1.586863	19956.638672
1.586962	20511.535156
1.587061	20217.183594
1.587160	20047.597656
1.587259	20257.939453
1.587358	20269.404297
1.587457	20518.205078
1.587556	20630.474609
1.587656	20244.455078
1.587755	20973.511719
1.587854	20629.068359
1.587953	21067.314453
1.588052	20705.187500
1.588151	21078.080078
1.588250	20953.095703
1.588350	20837.039062
1.588449	21186.027344
1.588548	21262.457031
1.588647	21081.263672
1.588747	21065.912109
1.588846	21272.554688
1.588945	21647.812500
1.589044	21590.947266
1.589144	21400.972656
1.589243	21696.156250
1.589342	22251.490234
1.589442	22046.714844
1.589541	21759.226562
1.589641	21971.384766
1.589740	22177.560547
1.589840	22105.902344
1.589939	22102.218750
1.590039	21888.806641
1.590138	22342.945312
1.590237	22418.953125
1.590337	22424.076172
1.590436	22435.099609
1.590536	22502.197266
1.590636	22705.017578
1.590735	22736.638672
1.590835	22883.300781
1.590935	23026.964844
1.591034	22801.949219
1.591134	23019.289062
1.591233	23304.361328
1.591333	23203.208984
1.591433	23379.111328
1.591533	23581.476562
1.591632	23559.869141
1.591732	23149.449219
1.591832	23822.962891
1.591932	23657.039062
1.592031	23850.349609
1.592131	23678.587891
1.592231	23833.568359
1.592331	23794.283203
1.592431	23925.654297
1.592531	24083.457031
1.592631	23988.265625
1.592731	23916.628906
1.592830	24559.484375
1.592930	24367.246094
1.593030	24580.685547
1.593130	24652.992188
1.593230	24748.781250
1.593330	25006.113281
1.593431	24749.337891
1.593531	25379.550781
1.593631	25343.017578
1.593731	25221.359375
1.593831	25132.027344
1.593931	25518.164062
1.594031	25079.626953
1.594131	25682.746094
1.594231	25370.460938
1.594332	25653.646484
1.594432	25769.593750
1.594532	25788.748047
1.594632	25875.318359
1.594733	26184.605469
1.594833	26224.191406
1.594933	26354.591797
1.595033	26271.097656
1.595134	26498.099609
1.595234	26842.162109
1.595334	26536.101562
1.595435	27193.281250
1.595535	26907.751953
1.595636	26683.773438
1.595736	27065.550781
1.595837	26812.363281
1.595937	27232.015625
1.596037	27511.150391
1.596138	27392.519531
1.596238	27542.894531
1.596339	27517.833984
1.596439	27609.683594
1.596540	27935.271484
1.596641	27845.878906
1.596741	27838.308594
1.596842	28207.500000
1.596942	28091.824219
1.597043	27914.873047
1.597144	28359.761719
1.597244	28579.763672
1.597345	28805.527344
1.597446	28520.617188
1.597546	28725.892578
1.597647	28645.257812
1.597748	28943.763672
1.597849	29341.302734
1.597950	29400.537109
1.598050	29465.580078
1.598151	29419.855469
1.598252	29266.335938
1.598353	29284.751953
1.598454	29760.476562
1.598555	29746.767578
1.598656	29476.816406
1.598757	29978.470703
1.598858	30174.312500
1.598958	29840.392578
1.599059	29989.630859
1.599160	30429.761719
1.599261	30654.482422
1.599362	30838.408203
1.599464	30493.019531
1.599565	30769.949219
1.599666	31299.693359
1.599767	30852.669922
1.599868	31074.183594
1.599969	31048.648438
1.600070	31473.406250
1.600171	31151.544922
1.600273	31526.771484
1.600374	31602.800781
1.600475	31858.796875
1.600576	31957.964844
1.600677	32025.173828
1.600779	32318.689453
1.600880	32145.015625
1.600981	32273.070312
1.601083	32633.099609
1.601184	32337.667969
1.601285	32538.105469
1.601387	32521.066406
1.601488	32701.115234
1.601589	32927.468750
1.601691	33295.710938
1.601792	32867.207031
1.601894	33498.898438
1.601995	33464.335938
1.602097	34115.980469
1.602198	33800.523438
1.602300	33971.425781
1.602401	34148.054688
1.602503	33879.039062
1.602604	33974.621094
1.602706	34292.890625
1.602808	34301.613281
1.602909	34345.027344
1.603011	34735.343750
1.603113	34671.718750
1.603214	34845.097656
1.603316	35070.429688
1.603418	35330.351562
1.603519	35243.558594
1.603621	35127.910156
1.603723	35595.597656
1.603825	35794.625000
1.603926	35817.496094
1.604028	35713.371094
1.604130	35880.531250
1.604232	36330.382812
1.604334	36442.574219
1.604436	36404.746094
1.604538	36280.414062
1.604639	36862.523438
1.604741	37193.636719
1.604843	37106.703125
1.604945	36875.707031
1.605047	37229.695312
1.605149	37476.976562
1.605251	37643.519531
1.605353	37827.285156
1.605455	37763.359375
1.605557	37644.757812
1.605659	37598.152344
1.605762	38276.804688
1.605864	38207.089844
1.605966	38735.808594
1.606068	38461.800781
1.606170	38975.917969
1.606272	38650.199219
1.606375	38939.855469
1.606477	39373.140625
1.606579	39294.687500
1.606681	39405.921875
1.606784	39505.625000
1.606886	39648.378906
1.606988	40006.500000
1.607091	39758.570312
1.607193	40214.171875
1.607295	40276.328125
1.607398	40163.378906
1.607500	40348.917969
1.607602	40654.906250
1.607705	40868.988281
1.607807	41128.890625
1.607910	40815.132812
1.608012	41238.394531
1.608115	41515.300781
1.608217	41766.316406
1.608320	41937.000000
1.608422	42099.027344
1.608525	42189.375000
1.608628	42007.566406
1.608730	42401.480469
1.608833	42686.445312
1.608935	42842.480469
1.609038	42895.406250
1.609141	42971.210938
1.609243	43347.457031
1.609346	43680.656250
1.609449	43126.949219
1.609551	44109.328125
1.609654	44173.417969
1.609757	44683.519531
1.609860	44301.531250
1.609963	44722.832031
1.610065	44489.566406
1.610168	45044.984375
1.610271	44951.718750
1.610374	45395.476562
1.610477	45402.136719
1.610580	45631.511719
1.610683	45455.414062
1.610786	45727.515625
1.610889	46250.667969
1.610992	46633.828125
1.611095	45607.492188
1.611198	46427.054688
1.611301	46242.437500
1.611404	47027.398438
1.611507	47065.117188
1.611610	47362.226562
1.611713	47493.929688
1.611816	47927.644531
1.611919	47948.089844
1.612022	48142.292969
1.612126	48632.636719
1.612229	48769.703125
1.612332	48821.304688
1.612435	48462.957031
1.612538	48648.363281
1.612642	49380.097656
1.612745	49650.640625
1.612848	49804.457031
1.612952	50208.523438
1.613055	50177.335938
1.613158	50538.546875
1.613262	50024.019531
1.613365	50532.937500
1.613468	50504.554688
1.613572	50891.035156
1.613675	51294.429688
1.613779	51541.460938
1.613882	51504.398438
1.613986	51967.113281
1.614089	51691.503906
1.614193	52630.917969
1.614296	52639.101562
1.614400	52641.605469
1.614503	53010.101562
1.614607	52657.949219
1.614710	53244.710938
1.614814	54015.593750
1.614918	54125.593750
1.615021	53643.082031
1.615125	53977.019531
1.615229	54611.230469
1.615332	54749.382812
1.615436	54867.660156
1.615540	54869.761719
1.615644	55225.859375
1.615747	55802.687500
1.615851	55824.445312
1.615955	55925.445312
1.616059	56159.425781
1.616163	56783.804688
1.616266	56528.121094
1.616370	57302.140625
1.616474	57948.632812
1.616578	57506.253906
1.616682	57391.972656
1.616786	57763.925781
1.616890	58234.667969
1.616994	58877.621094
1.617098	58726.453125
1.617202	58948.207031
1.617306	59452.320312
1.617410	59422.546875
1.617514	59796.531250
1.617618	59591.687500
1.617723	60634.429688
1.617827	60539.566406
1.617931	60599.914062
1.618035	60640.496094
1.618139	61177.472656
1.618243	61279.976562
1.618348	62064.789062
1.618452	61893.652344
1.618556	62458.234375
1.618660	63011.355469
1.618765	62882.402344
1.618869	63387.367188
1.618973	63416.128906
1.619077	63250.558594
1.619182	63836.859375
1.619286	63873.968750
1.619391	64189.738281
1.619495	64361.863281
1.619599	64480.464844
1.619704	65367.085938
1.619808	65440.464844
1.619913	66200.062500
1.620017	66177.664062
1.620122	66144.031250
1.620226	66863.757812
1.620331	66903.085938
1.620435	66804.703125
1.620540	67729.062500
1.620645	67540.671875
1.620749	67925.320312
1.620854	68149.765625
1.620959	68629.640625
1.621063	68570.351562
1.621168	69507.500000
1.621273	69546.296875
1.621377	70188.343750
1.621482	70156.875000
1.621587	70226.398438
1.621692	71064.304688
1.621796	70654.164062
1.621901	71191.742188
1.622006	71263.835938
1.622111	72496.148438
1.622216	71856.265625
1.622321	72967.593750
1.622426	72686.382812
1.622531	73164.242188
1.622635	73440.328125
1.622741	74265.062500
1.622846	73216.820312
1.622950	73837.000000
1.623055	74484.945312
1.623160	74816.515625
1.623266	74994.125000
1.623371	75552.039062
1.623476	76051.039062
1.623581	76527.500000
1.623686	76170.750000
1.623791	76879.015625
1.623896	77430.539062
1.624001	77657.765625
1.624107	77580.414062
1.624212	78003.054688
1.624317	78679.679688
1.624422	79375.609375
1.624527	79418.054688
1.624633	79837.296875
1.624738	79578.242188
1.624843	80108.914062
1.624949	80494.343750
1.625054	80263.195312
1.625159	80804.632812
1.625265	81990.007812
1.625370	81811.679688
1.625476	82494.742188
1.625581	82542.132812
1.625686	83280.554688
1.625792	83116.054688
1.625897	83294.226562
1.626003	83867.828125
1.626108	84368.828125
1.626214	84477.085938
1.626320	85061.320312
1.626425	85213.953125
1.626531	85358.179688
1.626636	86014.304688
1.626742	87031.828125
1.626848	86869.726562
1.626953	86649.273438
1.627059	86968.289062
1.627165	87579.085938
1.627270	87895.054688
1.627376	88722.242188
1.627482	88887.867188
1.627588	88958.968750
1.627693	89621.679688
1.627799	89648.195312
1.627905	90049.546875
1.628011	90514.617188
1.628117	90726.929688
1.628223	91152.867188
1.628329	90973.757812
1.628434	91052.710938
1.628540	91689.179688
1.628646	92297.695312
1.628752	92722.992188
1.628858	93278.445312
1.628964	92796.992188
1.629070	93224.750000
1.629176	93391.882812
1.629282	94046.570312
1.629388	94086.078125
1.629495	94488.390625
1.629601	95062.250000
1.629707	95497.476562
1.629813	95655.726562
1.629919	96500.328125
1.630025	96240.492188
1.630131	96802.484375
1.630238	97286.828125
1.630344	97356.125000
1.630450	98116.742188
1.630556	98116.742188
1.630663	98202.437500
1.630769	98655.710938
1.630875	99318.859375
1.630982	98804.703125
1.631088	99061.492188
1.631194	100185.500000
1.631301	100825.835938
1.631407	100844.679688
1.631514	100653.695312
1.631620	101277.046875
1.631727	101588.335938
1.631833	102484.484375
1.631940	101827.093750
1.632046	102596.007812
1.632153	103383.968750
1.632259	103504.351562
1.632366	104167.812500
1.632473	103348.039062
1.632579	104044.367188
1.632686	104655.039062
1.632792	104058.750000
1.632899	104625.125000
1.633006	105213.343750
1.633113	105366.273438
1.633219	105954.156250
1.633326	105837.117188
1.633433	107024.726562
1.633540	106478.250000
1.633646	107478.250000
1.633753	107644.367188
1.633860	107873.687500
1.633967	108160.671875
1.634074	107848.156250
1.634181	108830.562500
1.634287	108476.804688
1.634394	108752.484375
1.634501	109206.671875
1.634608	108951.914062
1.634715	109243.843750
1.634822	109955.859375
1.634929	109898.789062
1.635036	109487.593750
1.635143	109982.343750
1.635251	110257.367188
1.635357	111188.093750
1.635465	111696.015625
1.635572	111657.890625
1.635679	111896.773438
1.635786	111521.343750
1.635893	112168.664062
1.636001	113076.179688
1.636108	113259.828125
1.636215	113257.078125
1.636322	113689.945312
1.636429	113068.031250
1.636537	113571.992188
1.636644	113560.960938
1.636751	114437.007812
1.636859	114163.031250
1.636966	114636.335938
1.637074	114496.500000
1.637181	114515.398438
1.637288	115869.257812
1.637396	115272.500000
1.637503	116051.484375
1.637611	116742.703125
1.637718	116200.757812
1.637826	116093.593750
1.637933	115934.531250
1.638041	116223.632812
1.638148	117605.382812
1.638256	116735.960938
1.638363	117890.484375
1.638471	116920.273438
1.638579	116553.726562
1.638686	116989.796875
1.638794	117422.984375
1.638902	118448.140625
1.639009	117549.570312
1.639117	117829.679688
1.639225	119012.414062
1.639333	118684.093750
1.639440	118693.953125
1.639548	118164.070312
1.639656	118713.632812
1.639764	118497.296875
1.639872	118932.179688
1.639979	118745.828125
1.640087	119079.742188
1.640195	119827.445312
1.640303	119243.523438
1.640411	119920.164062
1.640519	119053.351562
1.640627	120491.734375
1.640735	120155.671875
1.640843	119961.171875
1.640951	120707.812500
1.641059	120374.585938
1.641167	120566.226562
1.641275	119770.992188
1.641384	120253.492188
1.641492	120583.640625
1.641600	120992.460938
1.641708	120515.523438
1.641816	120432.585938
1.641924	120599.515625
1.642033	120530.156250
1.642141	119893.429688
1.642249	121007.656250
1.642357	120373.773438
1.642466	119921.890625
1.642574	120644.867188
1.642682	120307.015625
1.642791	120847.968750
1.642899	120840.992188
1.643007	121243.398438
1.643116	120344.546875
1.643224	121232.007812
1.643333	120840.179688
1.643441	120294.046875
1.643550	121289.406250
1.643658	120556.500000
1.643767	120874.500000
1.643875	121032.648438
1.643984	121217.804688
1.644092	120166.023438
1.644201	120491.968750
1.644309	120852.976562
1.644418	119896.460938
1.644527	119878.781250
1.644635	120115.304688
1.644744	119629.843750
1.644853	119247.257812
1.644961	119710.789062
1.645070	119944.460938
1.645179	120032.140625
1.645288	119706.468750
1.645397	119680.710938
1.645505	119255.273438
1.645614	118964.992188
1.645723	119287.609375
1.645832	118824.656250
1.645941	119025.742188
1.646050	118705.992188
1.646159	118564.398438
1.646268	118201.671875
1.646376	118208.531250
1.646485	118468.843750
1.646594	118621.226562
1.646703	117463.554688
1.646812	118001.437500
1.646922	117835.851562
1.647031	117029.125000
1.647140	117286.656250
1.647249	116636.492188
1.647358	117219.812500
1.647467	115912.960938
1.647576	116358.914062
1.647685	115970.398438
1.647795	115684.257812
1.647904	114841.289062
1.648013	115951.539062
1.648122	115197.554688
1.648232	114255.601562
1.648341	114781.929688
1.648450	114337.664062
1.648560	114078.992188
1.648669	114078.382812
1.648778	113032.609375
1.648888	112903.218750
1.648997	112693.296875
1.649107	112972.187500
1.649216	112601.218750
1.649325	111961.921875
1.649435	112195.156250
1.649544	111711.789062
1.649654	111875.210938
1.649763	111255.242188
1.649873	110648.882812
1.649983	111276.335938
1.650092	111179.617188
1.650202	109656.734375
1.650311	109729.179688
1.650421	108732.320312
1.650531	108979.054688
1.650640	109381.093750
1.650750	108990.132812
1.650860	108963.523438
1.650970	107831.062500
1.651079	107933.156250
1.651189	107264.312500
1.651299	106705.429688
1.651409	106352.765625
1.651518	106315.906250
1.651628	105621.039062
1.651738	105720.703125
1.651848	105167.882812
1.651958	104668.718750
1.652068	104388.914062
1.652178	103211.195312
1.652288	103776.132812
1.652398	103336.304688
1.652508	103206.492188
1.652618	102694.796875
1.652728	101769.367188
1.652838	101498.375000
1.652948	101633.218750
1.653058	100721.781250
1.653168	101019.484375
1.653278	100391.265625
1.653389	99789.937500
1.653499	99730.234375
1.653609	99347.882812
1.653719	98960.328125
1.653829	98149.039062
1.653940	97777.804688
1.654050	96990.968750
1.654160	97352.773438
1.654270	96571.601562
1.654381	96379.328125
1.654491	95803.632812
1.654601	94706.265625
1.654712	95049.492188
1.654822	94362.523438
1.654933	93782.234375
1.655043	93755.585938
1.655154	93438.960938
1.655264	92774.000000
1.655374	92595.937500
1.655485	92407.296875
1.655596	91811.960938
1.655706	91644.781250
1.655817	90853.109375
1.655927	90338.046875
1.656038	90266.835938
1.656149	89390.796875
1.656259	88770.007812
1.656370	89222.187500
1.656480	88240.570312
1.656591	87638.867188
1.656702	87578.781250
1.656813	87112.718750
1.656923	86307.226562
1.657034	86212.906250
1.657145	85707.523438
1.657256	84764.781250
1.657367	84967.703125
1.657477	84542.312500
1.657588	83685.054688
1.657699	83694.601562
1.657810	82726.500000
1.657921	82500.437500
1.658032	82393.640625
1.658143	81804.929688
1.658254	81658.562500
1.658365	81239.585938
1.658476	80256.992188
1.658587	79872.796875
1.658698	79713.625000
1.658809	78834.960938
1.658920	78414.164062
1.659031	78329.359375
1.659142	77932.578125
1.659254	77078.601562
1.659365	76856.617188
1.659476	76423.289062
1.659587	75797.226562
1.659698	75493.671875
1.659810	75348.695312
1.659921	75106.054688
1.660032	74042.328125
1.660143	73757.750000
1.660255	73855.992188
1.660366	72954.000000
1.660478	72527.257812
1.660589	72158.703125
1.660700	71434.179688
1.660812	71461.515625
1.660923	71095.960938
1.661035	70596.078125
1.661146	70230.789062
1.661258	69533.554688
1.661369	68720.617188
1.661481	68851.125000
1.661592	68668.125000
1.661704	67708.265625
1.661815	67720.375000
1.661927	67416.546875
1.662039	67147.046875
1.662150	65988.070312
1.662262	65937.304688
1.662374	65344.582031
1.662485	65065.085938
1.662597	64530.570312
1.662709	64148.750000
1.662821	64164.058594
1.662933	63593.160156
1.663044	62877.906250
1.663156	62698.960938
1.663268	63140.125000
1.663380	62354.382812
1.663492	62062.675781
1.663604	61752.683594
1.663715	61272.136719
1.663827	60628.996094
1.663939	59663.242188
1.664051	59721.250000
1.664163	59978.640625
1.664275	59372.878906
1.664387	58617.824219
1.664499	58151.484375
1.664611	58057.617188
1.664724	57486.671875
1.664836	57343.148438
1.664948	57702.828125
1.665060	56626.539062
1.665172	56677.089844
1.665284	56064.949219
1.665397	55678.234375
1.665509	54914.605469
1.665621	55041.324219
1.665733	54442.964844
1.665846	53758.445312
1.665958	53987.335938
1.666070	53488.871094
1.666183	52943.488281
1.666295	52950.105469
1.666407	52622.023438
1.666520	52220.855469
1.666632	51696.972656
1.666744	51573.117188
1.666857	51112.230469
1.666969	50688.074219
1.667082	50308.464844
1.667194	50354.683594
1.667307	50225.929688
1.667420	49546.359375
1.667532	49386.464844
1.667645	49075.253906
1.667757	48725.003906
1.667870	48839.265625
1.667983	48298.753906
1.668095	47922.734375
1.668208	47119.199219
1.668321	47429.183594
1.668433	46930.988281
1.668546	46459.019531
1.668659	46349.421875
1.668772	46219.015625
1.668885	45606.746094
1.668997	45385.351562
1.669110	45010.394531
1.669223	44494.972656
1.669336	44448.289062
1.669449	44349.566406
1.669562	44230.058594
1.669675	43137.519531
1.669788	43551.531250
1.669901	43601.273438
1.670014	43149.113281
1.670127	42210.906250
1.670240	42024.289062
1.670353	41918.304688
1.670466	41734.398438
1.670579	41415.445312
1.670692	40888.781250
1.670805	40681.765625
1.670918	40404.703125
1.671031	40545.757812
1.671145	40660.804688
1.671258	39750.574219
1.671371	39671.082031
1.671484	39752.484375
1.671598	38951.832031
1.671711	38859.546875
1.671824	38743.949219
1.671937	38607.648438
1.672051	37934.765625
1.672164	38011.191406
1.672278	37854.347656
1.672391	37770.109375
1.672504	36875.035156
1.672618	36974.894531
1.672731	36365.128906
1.672845	36581.558594
1.672958	36285.316406
1.673072	36160.011719
1.673185	35926.054688
1.673299	35718.054688
1.673413	35370.417969
1.673526	34978.929688
1.673640	34626.367188
1.673753	34692.812500
1.673867	34823.867188
1.673981	34670.542969
1.674094	33974.546875
1.674208	33751.652344
1.674322	33862.105469
1.674436	33231.175781
1.674549	33199.632812
1.674663	32868.570312
1.674777	32664.121094
1.674891	32725.615234
1.675005	32064.449219
1.675119	32200.855469
1.675233	31862.500000
1.675346	31831.222656
1.675460	31173.240234
1.675574	31477.312500
1.675688	30927.898438
1.675802	31015.373047
1.675916	30373.443359
1.676030	30594.978516
1.676144	29968.798828
1.676258	29793.626953
1.676373	30192.855469
1.676487	29711.267578
1.676601	29798.839844
1.676715	29407.580078
1.676829	28908.357422
1.676943	29026.900391
1.677058	28859.810547
1.677172	28952.593750
1.677286	28245.458984
1.677400	28423.173828
1.677515	27865.494141
1.677629	27392.835938
1.677743	27701.683594
1.677858	27524.738281
1.677972	27494.304688
1.678086	26947.535156
1.678201	27245.968750
1.678315	26761.060547
1.678429	26705.099609
1.678544	26620.917969
1.678658	26521.365234
1.678773	26460.337891
1.678887	25868.214844
1.679002	25681.617188
1.679117	25492.519531
1.679231	25606.091797
1.679346	25440.146484
1.679461	25302.455078
1.679575	24800.847656
1.679690	24881.140625
1.679804	24833.294922
1.679919	24278.226562
1.680034	24297.093750
1.680149	24008.642578
1.680263	23940.490234
1.680378	24151.406250
1.680493	23712.111328
1.680608	23342.062500
1.680723	23552.970703
1.680837	23446.578125
1.680952	23053.744141
1.681067	22973.046875
1.681182	23022.779297
1.681297	22441.039062
1.681412	22373.265625
1.681527	22607.080078
1.681642	22329.775391
1.681757	22274.828125
1.681872	22066.640625
1.681987	21968.341797
1.682102	21875.181641
1.682217	21399.105469
1.682333	21331.599609
1.682448	21248.802734
1.682563	21160.931641
1.682678	20802.660156
1.682793	20883.246094
1.682908	20905.144531
1.683024	20717.945312
1.683139	20510.412109
1.683254	20226.478516
1.683369	20296.896484
1.683485	19834.726562
1.683600	19938.306641
1.683715	19939.958984
1.683831	19503.556641
1.683946	19706.447266
1.684062	19491.730469
1.684177	19205.814453
1.684293	18963.261719
1.684408	19074.496094
1.684524	19170.423828
1.684639	18793.183594
1.684755	18711.095703
1.684870	18804.492188
1.684986	18605.476562
1.685101	18383.652344
1.685217	18459.263672
1.685332	18153.683594
1.685448	18214.064453
1.685564	17926.412109
1.685680	17819.183594
1.685795	17798.328125
1.685911	17658.152344
1.686027	17518.023438
1.686142	17271.343750
1.686258	17232.832031
1.686374	17242.539062
1.686490	17216.728516
1.686606	16934.761719
1.686722	17091.593750
1.686838	16855.380859
1.686953	16545.736328
1.687069	16555.548828
1.687185	16469.062500
1.687301	16559.960938
1.687417	16336.707031
1.687533	16065.408203
1.687649	16077.824219
1.687766	15783.875000
1.687882	15598.879883
1.687998	15548.092773
1.688114	15722.544922
1.688230	15631.270508
1.688346	15512.200195
1.688462	15410.875000
1.688578	15228.662109
1.688695	15342.333984
1.688811	15104.579102
1.688927	14851.741211
1.689043	14745.561523
1.689160	14967.881836
1.689276	14902.136719
1.689392	14616.670898
1.689509	14253.018555
1.689625	14195.003906
1.689742	14422.273438
1.689858	14152.230469
1.689974	14311.291016
1.690091	14162.470703
1.690207	14028.837891
1.690324	13928.041016
1.690440	13885.280273
1.690557	13648.385742
1.690673	13804.843750
1.690790	13714.235352
1.690907	13482.531250
1.691023	13424.764648
1.691140	13324.190430
1.691257	13437.747070
1.691373	13060.185547
1.691490	13133.460938
1.691607	13148.808594
1.691723	12809.247070
1.691840	12970.608398
1.691957	12847.584961
1.692074	12684.352539
1.692191	12755.098633
1.692307	12549.184570
1.692424	12411.231445
1.692541	12461.875000
1.692658	12354.146484
1.692775	12246.455078
1.692892	12455.398438
1.693009	12242.210938
1.693126	11953.742188
1.693243	12016.966797
1.693360	11796.431641
1.693477	11774.302734
1.693594	11827.483398
1.693711	11938.367188
1.693828	11785.745117
1.693945	11507.737305
1.694062	11548.383789
1.694180	11403.431641
1.694297	11363.842773
1.694414	11427.054688
1.694531	11174.414062
1.694649	11132.376953
1.694766	11092.861328
1.694883	11233.739258
1.695000	11171.673828
1.695118	11054.533203
1.695235	10817.240234
1.695352	10725.236328
1.695470	10768.431641
1.695587	10774.072266
1.695705	10652.094727
1.695822	10490.129883
1.695940	10565.853516
1.696057	10498.995117
1.696175	10347.142578
1.696292	10417.849609
1.696410	10291.059570
1.696527	10406.736328
1.696645	10220.020508
1.696762	10100.824219
1.696880	10134.041992
1.696998	10137.278320
1.697115	9990.690430
1.697233	9806.703125
1.697351	9939.793945
1.697469	9818.272461
1.697586	9681.821289
1.697704	9660.181641
1.697822	9710.887695
1.697940	9524.644531
1.698058	9283.606445
1.698175	9389.199219
1.698293	9584.494141
1.698411	9228.924805
1.698529	9174.993164
1.698647	9238.176758
1.698765	9383.540039
1.698883	9073.082031
1.699001	9078.975586
1.699119	8972.832031
1.699237	9038.483398
1.699355	9086.689453
1.699473	8868.620117
1.699591	8959.133789
1.699710	8713.799805
1.699828	8799.333984
1.699946	8723.205078
1.700064	8721.689453
1.700182	8680.400391
1.700300	8395.560547
1.700419	8476.103516
1.700537	8569.041992
1.700655	8418.507812
1.700774	8518.874023
1.700892	8279.004883
1.701010	8277.565430
1.701129	8380.384766
1.701247	8197.748047
1.701365	7987.878906
1.701484	7986.489746
1.701602	8062.000000
1.701721	7886.985352
1.701839	8054.236816
1.701958	7785.069336
1.702076	7810.982910
1.702195	7812.103027
1.702314	7748.793457
1.702432	7915.921875
1.702551	7731.234863
1.702669	7514.413574
1.702788	7728.544922
1.702907	7511.799316
1.703025	7587.230957
1.703144	7392.859863
1.703263	7552.421387
1.703382	7466.985840
1.703501	7198.524414
1.703619	7338.249512
1.703738	7285.041992
1.703857	7241.742676
1.703976	7265.202148
1.704095	7261.466309
1.704214	7173.712402
1.704333	7118.107910
1.704451	7025.468262
1.704571	6839.006836
1.704690	6963.756348
1.704808	6942.791504
1.704928	6825.560547
1.705047	6950.246582
1.705166	6796.039062
1.705285	6673.958984
1.705404	6835.607910
1.705523	6659.302734
1.705642	6707.462402
1.705761	6632.327637
1.705881	6500.520508
1.706000	6561.005371
1.706119	6394.756836
1.706238	6484.804688
1.706357	6592.064453
1.706477	6524.415527
1.706596	6471.565430
1.706715	6527.066406
1.706835	6358.534180
1.706954	6254.053223
1.707074	6326.788086
1.707193	6325.685547
1.707313	6255.703613
1.707432	6195.584473
1.707552	5975.643555
1.707671	6247.515625
1.707791	5973.560059
1.707910	6006.928223
1.708030	6111.549316
1.708149	6137.510254
1.708269	5917.807617
1.708389	5825.899902
1.708508	5915.744141
1.708628	6020.288574
1.708748	5935.774414
1.708867	5846.380859
1.708987	5850.269043
1.709107	5886.051758
1.709227	5860.493652
1.709346	5771.174805
1.709466	5588.700684
1.709586	5663.732422
1.709706	5478.889160
1.709826	5514.697754
1.709946	5501.482910
1.710066	5397.617676
1.710186	5487.314453
1.710306	5520.646484
1.710426	5394.792480
1.710546	5486.890137
1.710666	5336.605469
1.710786	5279.380371
1.710906	5334.742676
1.711026	5265.303711
1.711146	5237.475586
1.711266	5224.332031
1.711386	5096.258301
1.711506	5180.942871
1.711627	5150.703613
1.711747	5152.248535
1.711867	5119.580566
1.711987	5211.531250
1.712108	5056.720703
1.712228	5038.740723
1.712348	5042.744629
1.712469	5007.681641
1.712589	5094.688477
1.712709	4905.862793
1.712830	4880.602539
1.712950	5026.142578
1.713071	4871.579102
1.713191	4843.898438
1.713312	4818.666504
1.713432	4810.509766
1.713553	4731.661621
1.713673	4716.210449
1.713794	4829.920410
1.713915	4556.191895
1.714035	4601.680664
1.714156	4742.141602
1.714276	4643.905273
1.714397	4623.615234
1.714518	4620.373047
1.714639	4510.039062
1.714759	4504.383789
1.714880	4552.257324
1.715001	4488.212891
1.715122	4377.978516
1.715243	4425.848633
1.715364	4284.055664
1.715484	4346.510742
1.715605	4294.709961
1.715726	4415.462891
1.715847	4378.246094
1.715968	4299.744629
1.716089	4366.999023
1.716210	4298.240234
1.716331	4309.628418
1.716452	4238.475586
1.716573	4174.629395
1.716694	4212.726074
1.716815	4214.415039
1.716936	4230.658203
1.717058	4193.536621
1.717179	4110.353516
1.717300	4090.237549
1.717421	4014.373291
1.717542	3987.009766
1.717664	4061.434082
1.717785	3973.499756
1.717906	4062.434570
1.718028	4008.438965
1.718149	3937.510986
1.718270	4082.091797
1.718392	3878.034424
1.718513	4061.299805
1.718634	4017.030518
1.718756	3936.484375
1.718877	3780.975830
1.718999	3886.733154
1.719120	3878.797852
1.719242	3911.967285
1.719364	3889.525879
1.719485	3840.505859
1.719607	3665.844482
1.719728	3740.101074
1.719850	3674.222900
1.719972	3639.765625
1.720093	3699.498291
1.720215	3747.137939
1.720337	3640.266846
1.720459	3547.914062
1.720580	3646.230225
1.720702	3739.686768
1.720824	3574.996338
1.720946	3600.900146
1.721068	3624.383301
1.721189	3565.883545
1.721311	3488.119873
1.721433	3465.816895
1.721555	3547.140381
1.721677	3652.528564
1.721799	3579.621094
1.721921	3436.893555
1.722043	3583.182129
1.722165	3380.312744
1.722287	3418.235352
1.722409	3398.381348
1.722531	3325.594482
1.722654	3346.664795
1.722776	3346.077637
1.722898	3410.428223
1.723020	3176.576416
1.723142	3315.466064
1.723265	3269.211426
1.723387	3184.518555
1.723509	3301.706299
1.723632	3329.957764
1.723754	3182.842529
1.723876	3242.326904
1.723998	3292.185303
1.724121	3197.973145
1.724243	3122.997559
1.724366	3283.251953
1.724488	3191.490234
1.724611	3193.329346
1.724733	3137.596924
1.724856	3149.037842
1.724978	3074.148926
1.725101	3085.596924
1.725223	3075.466553
1.725346	3058.149902
1.725469	3060.009277
1.725591	3114.575928
1.725714	3054.143799
1.725837	3060.792236
1.725959	3036.309082
1.726082	2959.163086
1.726205	3016.092529
1.726328	2991.629883
1.726450	2952.818115
1.726573	2933.159668
1.726696	2942.212402
1.726819	3001.486084
1.726942	3046.391602
1.727065	2861.766113
1.727188	2885.166748
1.727311	2934.848389
1.727434	2826.804199
1.727557	2768.968994
1.727680	2787.591797
1.727803	2789.489990
1.727926	2891.676758
1.728049	2778.959717
1.728172	2723.570068
1.728295	2749.343750
1.728418	2861.010010
1.728541	2757.919922
1.728665	2845.691895
1.728788	2714.021729
1.728911	2749.311768
1.729034	2760.748779
1.729157	2714.973877
1.729281	2669.215088
1.729404	2702.104736
1.729527	2780.248291
1.729651	2727.355957
1.729774	2645.903564
1.729898	2688.298340
1.730021	2704.490479
1.730145	2658.789062
1.730268	2579.785156
1.730392	2557.916260
1.730515	2650.248535
1.730639	2509.443604
1.730762	2558.944336
1.730886	2655.982910
1.731009	2558.043457
1.731133	2500.546631
1.731256	2559.519531
1.731380	2511.546875
1.731504	2575.248291
1.731628	2387.148438
1.731751	2431.850586
1.731875	2464.664307
1.731999	2440.490234
1.732123	2447.181396
1.732246	2475.228516
1.732370	2420.218994
1.732494	2391.324707
1.732618	2250.959717
1.732742	2373.881836
1.732866	2406.658936
1.732990	2368.304199
1.733114	2429.513672
1.733238	2355.620850
1.733362	2378.899902
1.733486	2392.694824
1.733610	2335.427246
1.733734	2263.970459
1.733858	2287.249023
1.733982	2286.846191
1.734106	2250.939209
1.734231	2252.909180
1.734355	2368.450195
1.734479	2263.943359
1.734603	2315.579834
1.734727	2178.011230
1.734852	2208.364746
1.734976	2174.879395
1.735100	2235.949219
1.735225	2171.749512
1.735349	2185.542969
1.735473	2159.171875
1.735598	2149.343506
1.735722	2156.049072
1.735847	2146.224365
1.735971	2171.813232
1.736096	2131.305908
1.736220	2156.888184
1.736345	2052.693359
1.736469	2170.281250
1.736594	2120.368164
1.736718	2051.607178
1.736843	2096.042480
1.736968	1987.235107
1.737092	2107.087402
1.737217	2184.480225
1.737342	2111.056152
1.737467	2082.415527
1.737591	1990.192871
1.737716	2072.260986
1.737841	2109.566162
1.737966	2078.591553
1.738091	2042.920776
1.738215	2037.853760
1.738340	1955.147217
1.738465	2023.020142
1.738590	2043.830444
1.738715	2027.008911
1.738840	1953.766724
1.738965	2035.695801
1.739090	1969.528687
1.739215	1966.831055
1.739340	1933.591431
1.739465	1858.081055
1.739590	1815.477783
1.739716	1927.870605
1.739841	1955.703491
1.739966	2018.736938
1.740091	1832.970947
1.740216	1905.389771
1.740342	1954.321777
1.740467	1799.159546
1.740592	1878.581665
1.740718	1784.454468
1.740843	1868.539917
1.740968	1844.769165
1.741094	1879.597656
1.741219	1787.879639
1.741344	1846.133911
1.741470	1880.943481
1.741595	1808.009521
1.741721	1845.155029
1.741846	1807.370361
1.741972	1825.776733
1.742097	1764.605347
1.742223	1754.933716
1.742349	1834.166260
1.742474	1777.703979
1.742600	1761.018799
1.742725	1798.119507
1.742851	1732.341797
1.742977	1729.697998
1.743103	1734.066040
1.743228	1743.105713
1.743354	1672.711670
1.743480	1775.189819
1.743606	1672.119751
1.743732	1723.192871
1.743858	1753.236938
1.743983	1626.884033
1.744109	1752.616455
1.744235	1656.641113
1.744361	1675.010986
1.744487	1604.740356
1.744613	1646.433350
1.744739	1634.483643
1.744865	1776.399536
1.744991	1629.243408
1.745117	1696.536743
1.745244	1682.256470
1.745370	1605.082397
1.745496	1616.443970
1.745622	1646.431641
1.745748	1622.856567
1.745874	1624.897095
1.746001	1571.076416
1.746127	1563.816772
1.746253	1617.053833
1.746380	1542.326294
1.746506	1600.199951
1.746632	1576.661865
1.746759	1597.307983
1.746885	1536.584351
1.747012	1617.660034
1.747138	1575.544678
1.747264	1586.882568
1.747391	1530.849609
1.747517	1509.675171
1.747644	1546.562256
1.747771	1506.818359
1.747897	1494.944458
1.748024	1534.135376
1.748150	1496.735107
1.748277	1517.350708
1.748404	1419.654419
1.748530	1495.939209
1.748657	1449.296509
1.748784	1507.001099
1.748911	1502.097778
1.749037	1497.196167
1.749164	1464.489380
1.749291	1454.962402
1.749418	1413.009033
1.749545	1477.606323
1.749672	1468.081787
1.749799	1488.657959
1.749925	1472.190552
1.750053	1397.870117
1.750180	1374.482666
1.750306	1487.601929
1.750434	1339.298096
1.750561	1457.008789
1.750688	1419.753418
1.750815	1479.610596
1.750942	1444.675781
1.751069	1298.821899
1.751196	1430.299072
1.751323	1397.701660
1.751451	1415.932251
1.751578	1390.277222
1.751705	1401.575439
1.751832	1373.623291
1.751960	1368.763062
1.752087	1347.749878
1.752214	1356.740112
1.752342	1391.103760
1.752469	1416.228882
1.752596	1374.466675
1.752724	1302.744507
1.752851	1323.261108
1.752979	1286.147339
1.753106	1306.659546
1.753234	1370.942261
1.753361	1352.269165
1.753489	1384.275024
1.753617	1344.880127
1.753744	1312.406616
1.753872	1314.475464
1.754000	1291.225342
1.754127	1247.272339
1.754255	1339.083984
1.754383	1246.829102
1.754511	1283.407715
1.754638	1271.681519
1.754766	1207.078003
1.754894	1257.436768
1.755022	1333.059692
1.755150	1215.626221
1.755278	1314.205200
1.755405	1171.548096
1.755533	1290.770508
1.755661	1233.132568
1.755789	1230.617310
1.755917	1308.446167
1.756045	1262.311279
1.756173	1312.570190
1.756302	1241.213623
1.756430	1277.694946
1.756558	1245.359009
1.756686	1229.085938
1.756814	1254.086548
1.756942	1187.388062
1.757071	1189.468628
1.757199	1191.548462
1.757327	1179.881226
1.757455	1154.474365
1.757583	1156.559204
1.757712	1206.729126
1.757840	1222.540161
1.757969	1206.299561
1.758097	1203.796265
1.758225	1171.547485
1.758354	1157.612305
1.758482	1166.555664
1.758611	1157.200195
1.758739	1168.426880
1.758868	1165.932617
1.758996	1149.724854
1.759125	1076.389648
1.759254	1080.767822
1.759382	1103.420532
1.759511	1148.906128
1.759640	1107.594849
1.759768	1077.714722
1.759897	1148.292236
1.760026	1097.873169
1.760154	1074.856812
1.760283	1070.101929
1.760412	1065.348755
1.760541	1110.776001
1.760670	1058.127808
1.760799	1128.620483
1.760927	1039.513550
1.761056	1105.426025
1.761185	1073.325439
1.761314	1025.287354
1.761443	1125.337036
1.761572	1031.754639
1.761701	1088.500732
1.761830	1065.538696
1.761960	1076.730713
1.762089	1024.191162
1.762218	1083.173462
1.762347	1026.101074
1.762476	1121.458130
1.762605	1014.363342
1.762734	1102.866577
1.762864	1039.010620
1.762993	1075.195557
1.763122	1050.003662
1.763252	1065.722656
1.763381	1040.541382
1.763510	981.296204
1.763640	978.850037
1.763769	1049.067383
1.763898	1051.150391
1.764028	1023.724060
1.764158	944.109131
1.764287	1030.166016
1.764416	991.414551
1.764546	945.872009
1.764676	1009.203613
1.764805	938.731934
1.764935	945.365601
1.765064	983.729980
1.765194	956.359314
1.765324	956.188599
1.765454	933.363403
1.765583	892.426025
1.765713	946.617920
1.765843	1018.904297
1.765973	980.237244
1.766102	968.745056
1.766232	902.944458
1.766362	963.873779
1.766492	950.128357
1.766622	934.125977
1.766752	945.266113
1.766882	967.707214
1.767012	931.364807
1.767142	888.254761
1.767272	940.071167
1.767402	964.756348
1.767532	975.878845
1.767662	876.327148
1.767792	939.399292
1.767922	887.302734
1.768052	970.666626
1.768183	896.013428
1.768313	916.162231
1.768443	895.693054
1.768573	850.417908
1.768704	897.628174
1.768834	859.133606
1.768964	820.652771
1.769095	890.384277
1.769225	899.239990
1.769356	883.305847
1.769486	856.112732
1.769616	880.737366
1.769747	858.058594
1.769877	808.367310
1.770008	850.997681
1.770139	835.089050
1.770269	913.707520
1.770400	843.790710
1.770530	859.387634
1.770661	818.746399
1.770791	861.329041
1.770922	867.920349
1.771053	847.532166
1.771184	838.389709
1.771314	806.777527
1.771445	840.336487
1.771576	795.256287
1.771707	815.328674
1.771838	857.850708
1.771968	792.583984
1.772099	830.604980
1.772230	778.833313
1.772361	857.236450
1.772492	825.671509
1.772623	762.712036
1.772754	823.132935
1.772885	827.470398
1.773016	831.806335
1.773147	782.340759
1.773278	815.819519
1.773410	815.673340
1.773541	813.286743
1.773672	795.220581
1.773803	799.557434
1.773934	785.978638
1.774066	767.926941
1.774197	790.173828
1.774328	810.174683
1.774459	718.285828
1.774591	756.190308
1.774722	785.133789
1.774854	780.520142
1.774985	755.783691
1.775116	773.533386
1.775248	818.099609
1.775379	753.142456
1.775511	737.366272
1.775643	750.638306
1.775774	734.868225
1.775906	770.468262
1.776037	725.673279
1.776169	738.937805
1.776300	756.661560
1.776432	720.819580
1.776564	743.002686
1.776695	722.791809
1.776827	715.970825
1.776959	706.922241
1.777091	686.728638
1.777223	722.273254
1.777354	708.770569
1.777486	699.729614
1.777618	761.989136
1.777750	741.803650
1.777882	741.670471
1.778014	717.042114
1.778146	712.460510
1.778278	723.462830
1.778410	721.107300
1.778542	712.076904
1.778674	714.173889
1.778806	720.718994
1.778938	713.917419
1.779071	733.802002
1.779203	698.098328
1.779335	675.744507
1.779467	700.070007
1.779599	675.501770
1.779732	719.813354
1.779864	621.949219
1.779996	679.579529
1.780129	655.032471
1.780261	666.015076
1.780393	668.115051
1.780526	674.652710
1.780658	603.528198
1.780791	658.881104
1.780923	707.559937
1.781056	678.603210
1.781188	614.180725
1.781321	687.226746
1.781453	625.042236
1.781586	667.035095
1.781718	673.562195
1.781851	666.795288
1.781984	666.675354
1.782116	684.271240
1.782249	662.007507
1.782382	646.392761
1.782515	663.982727
1.782647	621.818604
1.782780	665.956360
1.782913	637.079529
1.783046	663.505127
1.783179	672.230896
1.783312	596.939758
1.783445	629.989746
1.783578	592.304810
1.783711	627.553345
1.783844	647.324097
1.783977	647.207642
1.784110	596.295593
1.784243	560.858643
1.784376	596.080994
1.784509	573.900635
1.784642	580.418030
1.784775	593.552673
1.784909	578.002991
1.785042	630.836243
1.785175	637.338623
1.785308	623.994324
1.785442	544.518860
1.785575	603.932434
1.785708	617.046082
1.785842	583.884827
1.785975	608.012085
1.786108	601.294922
1.786242	609.995178
1.786375	570.253784
1.786509	603.171387
1.786642	559.043579
1.786776	580.948425
1.786909	589.644470
1.787043	556.541687
1.787176	527.849548
1.787310	536.550293
1.787444	604.609619
1.787578	573.726074
1.787711	589.007202
1.787845	529.571411
1.787979	566.824890
1.788112	579.902344
1.788246	573.209167
1.788380	584.084900
1.788514	555.439209
1.788648	535.583923
1.788782	555.238953
1.788916	563.915710
1.789049	579.170837
1.789183	543.971436
1.789317	532.908142
1.789451	561.316345
1.789585	552.446106
1.789720	499.742035
1.789854	532.523743
1.789988	530.236572
1.790122	541.094238
1.790256	532.235535
1.790390	547.468628
1.790524	514.527649
1.790659	446.573181
1.790793	538.417542
1.790927	531.755493
1.791062	540.411133
1.791196	551.251099
1.791330	535.841797
1.791465	500.757660
1.791599	533.462036
1.791733	485.275391
1.791868	509.228607
1.792002	561.579895
1.792137	491.566803
1.792271	498.031067
1.792406	504.492981
1.792541	534.971680
1.792675	506.493927
1.792810	519.499084
1.792944	504.128601
1.793079	482.217743
1.793214	523.580750
1.793348	479.862305
1.793483	525.572388
1.793618	492.771362
1.793753	558.082642
1.793887	470.797119
1.794022	516.475708
1.794157	490.236420
1.794292	514.110596
1.794427	487.881195
1.794562	505.214172
1.794697	439.805237
1.794832	494.147247
1.794967	450.528564
1.795102	446.094971
1.795237	502.582001
1.795372	465.511261
1.795507	428.453888
1.795642	421.852905
1.795777	469.606964
1.795913	484.738007
1.796048	454.223877
1.796183	480.216827
1.796318	469.267303
1.796454	464.838135
1.796589	462.582275
1.796724	462.498596
1.796860	438.534332
1.796995	475.354645
1.797130	457.907227
1.797266	431.786957
1.797401	433.878204
1.797537	451.151672
1.797672	446.732788
1.797808	444.483734
1.797943	470.417114
1.798079	479.001678
1.798215	457.244598
1.798350	439.828674
1.798486	452.746552
1.798621	452.664551
1.798757	428.762451
1.798893	422.189575
1.799029	456.748047
1.799164	432.858124
1.799300	424.124146
1.799436	432.701355
1.799572	436.949188
1.799708	417.405548
