#Wave		#Intensity
1825.300781	27.222847
1823.734375	27.222847
1822.166016	30.241343
1820.597656	19.652800
1819.031250	21.160168
1817.462891	19.644653
1815.892578	28.705465
1814.324219	15.105006
1812.755859	21.142622
1811.185547	16.608614
1809.615234	25.662531
1808.044922	24.147957
1806.474609	24.142944
1804.904297	27.155172
1803.332031	22.624609
1801.759766	19.603922
1800.189453	19.599848
1798.617188	19.595774
1797.042969	19.591700
1795.470703	27.121328
1793.898438	27.115688
1792.324219	31.628387
1790.750000	24.092806
1789.175781	19.571331
1787.601562	16.556910
1786.025391	28.592342
1784.451172	22.568201
1782.875000	9.025400
1781.298828	21.054878
1779.722656	18.043278
1778.146484	28.562569
1776.570312	22.544695
1774.992188	27.047993
1773.416016	21.032940
1771.837891	18.024473
1770.259766	21.024164
1768.681641	24.022600
1767.101562	13.509892
1765.523438	16.508642
1763.943359	18.005667
1762.363281	27.002857
1760.783203	22.497681
1759.203125	22.492979
1757.621094	22.488276
1756.041016	19.485765
1754.458984	26.974648
1752.876953	29.965561
1751.294922	23.967434
1749.712891	13.478860
1748.130859	17.968052
1746.546875	22.455362
1744.962891	16.463818
1743.378906	10.474781
1741.794922	13.464754
1740.210938	25.428095
1738.626953	16.450026
1737.041016	22.427151
1735.455078	19.432789
1733.869141	14.945165
1732.283203	17.930435
1730.697266	13.445005
1729.111328	28.377945
1727.523438	13.439363
1725.935547	16.422440
1724.347656	25.374805
1722.759766	23.877153
1721.171875	31.332182
1719.582031	22.375427
1717.994141	16.405199
1716.404297	7.455341
1714.814453	13.416793
1713.224609	8.942648
1711.632812	14.901278
1710.042969	14.898144
1708.451172	11.916007
1706.859375	11.913499
1705.267578	20.844234
1703.675781	17.862726
1702.083984	17.858963
1700.490234	17.855202
1698.898438	22.314301
1697.304688	10.411146
1695.710938	13.382938
1694.117188	14.866796
1692.521484	7.431831
1690.927734	11.888422
1689.332031	17.828871
1687.736328	13.368833
1686.140625	13.366012
1684.544922	16.332788
1682.947266	16.329340
1681.351562	17.810064
1679.753906	14.838586
1678.156250	8.901271
1676.558594	7.416159
1674.960938	10.380428
1673.361328	4.447814
1671.763672	11.858332
1670.164062	10.373846
1668.564453	14.816646
1666.964844	20.738916
1665.363281	17.772453
1663.763672	10.365070
1662.162109	14.804109
1660.560547	10.360682
1658.958984	11.838273
1657.357422	20.712589
1655.755859	16.270731
1654.152344	8.873063
1652.550781	16.263836
1650.947266	8.869303
1649.343750	16.256941
1647.738281	11.820723
1646.134766	11.818215
1644.529297	14.769636
1642.925781	22.149754
1641.320312	10.334358
1639.714844	11.808188
1638.107422	8.854261
1636.501953	16.229364
1634.894531	20.651169
1633.287109	14.747702
1631.679688	13.270111
1630.072266	23.586296
1628.464844	19.159792
1626.857422	17.682201
1625.248047	22.098053
1623.638672	23.566242
1622.029297	20.616076
1620.419922	23.556217
1618.808594	26.495106
1617.199219	10.301459
1615.587891	13.241914
1613.976562	23.536167
1612.365234	8.824183
1610.753906	17.644608
1609.140625	5.880282
1607.529297	8.818544
1605.916016	8.816665
1604.302734	13.222178
1602.689453	10.281724
1601.076172	14.685044
1599.460938	10.277339
1597.847656	16.146658
1596.232422	16.143213
1594.617188	10.270761
1593.000000	5.867754
1591.384766	13.199627
1589.769531	10.264184
1588.152344	16.125988
1586.535156	20.519600
1584.917969	0.000000
1583.300781	17.580711
1581.681641	5.858985
1580.064453	13.179897
1578.445312	2.928240
1576.826172	19.029488
1575.207031	23.415899
1573.585938	16.094986
1571.966797	11.702940
1570.345703	5.850217
1568.724609	17.546896
1567.103516	2.923856
1565.482422	0.000000
1563.861328	10.229115
1562.238281	14.609890
1560.615234	4.382028
1558.994141	18.984718
1557.369141	14.600498
1555.746094	14.597368
1554.123047	14.594238
1552.498047	17.509329
1550.873047	13.129180
1549.248047	8.750909
1547.623047	16.039890
1545.998047	14.578588
1544.371094	10.202821
1542.746094	13.115096
1541.119141	14.569200
1539.492188	20.392498
1537.863281	11.650352
1536.236328	14.559812
1534.607422	11.645346
1532.980469	16.008909
1531.351562	10.185297
1529.720703	14.547296
1528.091797	14.544167
1526.462891	15.995142
1524.832031	10.176537
1523.201172	8.720869
1521.570312	13.078487
1519.939453	7.264262
1518.308594	13.072857
1516.675781	14.522268
1515.042969	11.615312
1513.410156	10.161208
1511.777344	15.964172
1510.144531	13.058781
1508.509766	17.407955
1506.876953	14.503501
1505.242188	10.150262
1503.607422	15.946971
1501.972656	7.247060
1500.335938	8.694595
1498.701172	10.141505
1497.064453	17.381685
1495.427734	14.481611
1493.791016	10.134939
1492.154297	7.237679
1490.515625	8.683339
1488.878906	14.469106
1487.240234	7.232989
1485.601562	18.801708
1483.962891	7.229864
1482.322266	10.119620
1480.683594	7.226737
1479.042969	7.225174
1477.402344	15.891946
1475.761719	7.222049
1474.121094	12.996876
1472.478516	8.662708
1470.837891	11.547778
1469.195312	14.431598
1467.552734	7.214236
1465.910156	12.982813
1464.265625	10.095556
1462.623047	11.535278
1460.978516	7.207987
1459.333984	11.530279
1457.689453	8.645835
1456.044922	12.965940
1454.398438	17.284172
1452.753906	7.200177
1451.107422	7.198615
1449.460938	15.833516
1447.812500	17.269178
1446.166016	11.510287
1444.519531	12.946261
1442.871094	12.943451
1441.222656	7.189244
1439.574219	14.375366
1437.923828	15.809467
1436.275391	22.990593
1434.625000	7.182999
1432.974609	12.926588
1431.324219	14.359754
1429.673828	10.049642
1428.023438	15.788859
1426.371094	14.350387
1424.718750	21.520897
1423.068359	17.212973
1421.414062	20.077431
1419.761719	14.337900
1418.109375	15.768257
1416.455078	7.165829
1414.800781	14.328537
1413.146484	4.297625
1411.492188	4.296689
1409.835938	20.046844
1408.181641	12.884449
1406.525391	20.038107
1404.869141	17.171776
1403.212891	22.890709
1401.554688	20.025003
1399.898438	15.730498
1398.240234	17.156801
1396.582031	21.441320
1394.923828	8.574656
1393.265625	12.859178
1391.605469	15.713342
1389.947266	18.566257
1388.287109	9.995032
1386.626953	21.413248
1384.966797	8.563428
1383.304688	17.123114
1381.644531	15.692758
1379.982422	15.689328
1378.320312	12.833917
1376.658203	15.682468
1374.996094	17.104406
1373.332031	18.525721
1371.667969	15.672180
1370.005859	9.971024
1368.341797	18.513561
1366.675781	12.814276
1365.011719	19.928955
1363.345703	21.347776
1361.679688	31.303215
1360.013672	52.634785
1358.347656	29.867252
1356.681641	29.860708
1355.013672	19.902777
1353.347656	9.949207
1351.679688	7.105019
1350.011719	7.103461
1348.341797	12.783425
1346.673828	21.301035
1345.003906	7.098787
1343.333984	14.194460
1341.664062	17.029613
1339.994141	19.863522
1338.322266	22.696184
1336.652344	14.182001
1334.980469	9.925220
1333.308594	17.010927
1331.636719	17.007191
1329.962891	26.922134
1328.291016	11.333144
1326.617188	5.665327
1324.943359	16.992245
1323.269531	9.909963
1321.595703	12.738580
1319.919922	14.150864
1318.246094	12.732976
1316.570312	5.657856
1314.894531	14.141526
1313.216797	12.724572
1311.541016	12.721771
1309.863281	8.479314
1308.185547	7.064538
1306.507812	11.300773
1304.830078	9.885998
1303.152344	8.471846
1301.472656	11.293304
1299.792969	8.468112
1298.115234	19.754572
1296.433594	12.696568
1294.753906	15.514606
1293.074219	12.690969
1291.392578	9.868576
1289.710938	15.504341
1288.029297	14.091745
1286.345703	11.270908
1284.664062	16.902632
1282.980469	7.041208
1281.296875	18.303099
1279.613281	16.891438
1277.929688	9.851162
1276.246094	8.441988
1274.560547	5.626748
1272.875000	12.657386
1271.189453	15.466719
1269.503906	12.651791
1267.818359	9.838105
1266.130859	15.456462
1264.443359	4.214466
1262.755859	8.427068
1261.068359	14.042006
1259.380859	16.846678
1257.691406	16.842949
1256.003906	15.435952
1254.314453	14.029577
1252.625000	9.818529
1250.933594	14.023363
1249.244141	12.618232
1247.552734	15.418866
1245.861328	1.401405
1244.169922	12.609845
1242.478516	11.206266
1240.787109	14.004727
1239.093750	18.202108
1237.400391	9.798962
1235.707031	13.995412
1234.013672	16.790768
1232.318359	15.388122
1230.625000	8.391658
1228.929688	15.381291
1227.234375	18.173855
1225.539062	15.374462
1223.841797	6.986840
1222.146484	9.779404
1220.449219	18.157715
1218.751953	11.171495
1217.054688	8.376760
1215.357422	6.979081
1213.658203	15.350566
1211.958984	13.951957
1210.259766	12.553968
1208.560547	0.000000
1206.861328	13.942650
1205.162109	15.333502
1203.460938	12.542801
1201.759766	20.900015
1200.058594	12.537218
1198.357422	8.356284
1196.654297	4.177212
1194.951172	11.136750
1193.250000	16.701405
1191.546875	13.914736
1189.841797	12.520472
1188.138672	8.345121
1186.433594	5.562174
1184.728516	9.731634
1183.023438	6.949617
1181.318359	11.116908
1179.613281	11.114429
1177.906250	11.111949
1176.199219	4.166051
1174.492188	9.718616
1172.785156	16.656767
1171.078125	8.326524
1169.369141	8.324664
1167.660156	19.419880
1165.951172	15.255069
1164.242188	11.092117
1162.533203	13.862048
1160.822266	9.701265
1159.113281	11.084682
1157.402344	4.155827
1155.689453	9.694760
1153.978516	8.307937
1152.267578	9.690425
1150.554688	15.224404
1148.841797	8.302362
1147.128906	9.683922
1145.414062	16.597294
1143.701172	20.741974
1141.986328	5.529954
1140.271484	12.439611
1138.556641	12.436826
1136.841797	9.670919
1135.125000	11.050004
1133.410156	11.047527
1131.693359	19.328840
1129.976562	5.521288
1128.257812	16.560150
1126.541016	11.037625
1124.822266	15.173330
1123.103516	16.549011
1121.384766	12.408975
1119.666016	11.027724
1117.945312	8.268937
1116.226562	8.267081
1114.505859	6.887688
1112.785156	15.149511
1111.062500	5.507676
1109.341797	16.519318
1107.619141	12.386704
1105.896484	9.631939
1104.173828	6.878410
1102.451172	13.753729
1100.728516	8.250382
1099.003906	9.623281
1097.279297	12.370008
1095.554688	13.741363
1093.830078	8.242963
1092.103516	15.108699
1090.378906	8.239254
1088.652344	10.983199
1086.925781	8.235545
1085.199219	15.095100
1083.470703	15.091702
1081.744141	19.203295
1080.015625	10.970840
1078.287109	17.823597
1076.556641	9.595160
1074.828125	12.333853
1073.097656	16.441431
1071.367188	12.328293
1069.636719	5.478006
1067.906250	5.476770
1066.175781	8.213303
1064.443359	10.948600
1062.710938	6.841331
1060.978516	2.735915
1059.246094	12.308838
1057.511719	10.938720
1055.779297	15.037343
1054.044922	16.400669
1052.310547	12.297724
1050.576172	6.830525
1048.839844	12.292169
1047.105469	13.654879
1045.369141	16.382151
1043.632812	10.918964
1041.894531	23.197554
1040.158203	23.192308
1038.419922	12.275504
1036.681641	10.909091
1034.943359	5.453311
1033.205078	12.267174
1031.466797	14.989820
1029.726562	12.261621
1027.986328	16.345127
1026.246094	13.617855
1024.505859	6.807385
1022.763672	20.417530
1021.023438	10.886883
1019.281250	17.687176
1017.539062	16.322924
1015.794922	16.319223
1014.052734	19.034777
1012.308594	21.749098
1010.564453	16.308125
1008.820312	14.945724
1007.076172	13.583939
1005.332031	12.222771
1003.585938	14.935552
1001.839844	13.574693
1000.093750	19.000256
998.347656	14.925383
996.599609	28.487440
994.851562	14.918603
993.103516	23.050785
991.355469	29.823650
989.607422	25.750935
987.857422	28.455091
986.109375	18.965748
984.359375	31.150930
982.609375	27.081606
980.857422	29.782990
979.107422	28.422750
977.355469	27.063128
975.603516	27.056969
973.851562	29.755892
972.099609	39.214745
970.345703	25.686569
968.591797	36.493656
966.837891	27.026180
965.083984	29.722025
963.330078	33.767334
961.574219	36.460411
959.818359	28.351633
958.062500	31.044710
956.306641	20.241934
954.550781	24.284781
952.792969	26.976936
951.035156	33.713478
949.277344	25.616396
947.519531	26.958475
945.761719	28.299938
944.001953	20.209627
942.242188	16.164011
940.482422	17.507011
938.722656	22.888556
936.960938	9.422546
935.201172	16.149246
933.439453	22.872871
931.677734	9.416088
929.914062	12.103632
928.152344	8.067243
926.388672	17.475029
924.625000	20.158884
922.861328	14.779799
921.097656	18.806351
919.332031	17.459044
917.568359	5.370784
915.802734	16.108664
914.037109	21.473299
912.269531	9.392417
910.503906	9.390266
908.736328	12.070434
906.968750	8.045112
905.201172	12.064902
903.431641	16.082850
901.664062	17.419092
899.894531	17.415098
898.125000	16.071789
896.355469	12.051078
894.583984	20.080523
892.814453	17.399126
891.042969	21.409395
889.271484	13.377800
887.498047	17.387148
885.726562	14.708824
883.953125	21.389740
882.179688	12.028965
880.406250	12.026202
878.632812	5.343750
876.857422	13.356306
875.083984	12.017913
873.308594	10.680133
871.533203	8.008258
869.755859	10.675221
867.980469	17.343245
866.203125	6.668944
864.425781	14.668302
862.648438	6.665875
860.869141	19.993023
859.091797	14.658175
857.312500	11.990291
855.533203	9.323634
853.753906	14.648050
851.972656	7.988005
850.193359	18.634382
848.412109	3.992162
846.630859	9.312897
844.847656	10.640857
843.066406	18.617207
841.283203	11.965444
839.500000	22.596180
837.716797	22.590965
835.933594	10.628590
834.148438	13.282671
832.363281	19.919407
830.578125	18.587154
828.792969	15.928167
827.007812	3.981122
825.220703	14.594075
823.433594	15.917131
821.646484	15.913453
819.859375	18.561403
818.072266	14.580588
816.283203	10.601613
814.494141	18.548532
812.705078	15.895064
810.916016	18.539951
809.125000	9.267831
807.335938	10.589355
805.544922	19.850445
803.753906	14.553623
801.960938	15.873003
800.169922	14.546884
798.376953	15.865651
796.583984	11.896482
794.791016	13.215250
792.996094	15.854625
791.203125	17.171862
789.408203	21.129698
787.613281	7.921800
785.816406	11.879943
784.021484	17.155937
782.224609	17.151957
780.427734	14.509826
778.630859	19.781534
776.833984	14.503091
775.035156	15.817880
773.236328	7.907103
771.437500	18.445621
769.638672	6.586192
767.839844	15.803186
766.039062	18.432766
764.238281	15.795841
762.437500	22.372238
760.636719	15.788496
758.835938	17.100225
757.033203	23.671728
755.230469	23.666220
753.427734	14.459325
751.623047	15.770137
749.820312	17.080338
748.015625	14.449228
746.210938	15.759124
744.406250	17.068407
742.599609	11.813837
740.794922	17.060455
738.988281	10.496294
737.181641	20.987696
735.375000	19.671377
733.566406	19.666790
731.757812	14.418948
729.949219	11.794569
728.140625	14.412221
726.332031	14.408858
724.521484	15.715085
722.712891	15.711416
720.902344	20.943663
719.089844	22.247446
717.279297	9.158573
715.466797	11.772557
713.654297	17.000832
711.841797	5.229802
710.029297	15.685739
708.214844	22.216269
706.402344	18.291471
704.587891	15.674737
702.773438	16.976992
700.957031	15.667402
699.142578	22.190292
697.326172	20.880093
695.509766	16.961103
693.691406	22.174709
691.875000	18.257248
690.056641	27.379457
688.238281	18.248695
686.419922	20.850763
684.601562	14.331540
682.781250	23.446114
680.960938	22.138359
679.140625	15.623411
677.320312	14.318101
675.500000	20.821442
673.677734	19.515522
671.855469	22.112400
670.033203	15.605088
668.210938	20.801899
666.386719	22.096827
664.562500	25.990160
662.738281	14.291229
660.914062	19.483461
659.089844	15.583105
657.263672	16.877729
655.437500	16.873760
653.611328	19.465145
651.785156	22.055307
649.957031	23.347185
648.130859	19.451408
646.302734	20.743286
644.472656	22.034554
642.644531	23.325211
640.814453	31.092957
638.984375	23.314224
637.154297	24.603661
635.324219	24.597864
633.494141	25.886385
631.662109	19.410212
629.830078	31.049017
627.998047	28.454887
626.164062	18.103384
624.332031	25.855877
622.498047	31.019730
620.664062	29.720226
618.830078	27.129452
616.994141	27.123047
615.158203	25.825373
613.322266	18.073490
611.486328	20.650537
609.650391	18.064951
607.812500	24.510925
605.974609	23.215387
604.136719	24.499336
602.298828	23.204409
600.458984	19.332434
598.621094	25.770479
596.781250	29.629040
594.941406	24.470369
593.099609	21.889359
591.259766	24.458784
589.417969	18.017994
587.576172	11.580253
585.732422	28.300577
583.890625	25.721701
582.046875	19.286703
580.203125	25.709509
578.359375	25.703411
576.515625	29.551914
574.669922	34.683147
572.824219	19.263844
570.978516	25.679029
569.132812	17.971054
567.285156	26.950182
565.437500	34.642006
563.589844	33.351044
561.742188	30.778267
559.894531	32.053078
558.044922	35.890915
556.195312	38.445412
554.345703	39.717480
552.496094	38.427132
550.644531	37.137390
548.794922	53.772392
546.943359	42.239685
545.089844	53.746803
543.238281	51.175247
541.384766	62.674751
539.531250	63.938599
537.677734	80.543442
535.824219	94.584045
533.968750	89.450073
532.113281	102.204285
530.257812	117.506912
528.402344	109.817223
526.546875	145.536957
524.689453	192.726654
522.832031	191.404633
520.974609	165.844421
519.115234	151.775208
517.257812	117.310799
515.398438	114.733154
513.539062	61.176403
511.677734	59.887585
509.818359	58.599373
507.957031	48.396610
506.095703	48.385040
504.234375	49.646458
502.371094	52.179947
500.509766	61.074104
498.646484	55.971203
496.783203	59.773113
494.917969	59.758804
493.054688	61.015659
491.189453	58.459339
489.324219	48.280930
487.458984	35.566898
485.591797	26.668783
483.724609	25.392754
481.857422	21.578667
479.990234	25.380579
478.123047	22.837044
476.253906	16.489464
474.384766	17.753624
472.515625	20.284986
470.646484	19.012609
468.775391	17.740843
466.904297	21.537279
465.033203	17.732323
463.162109	22.793222
461.291016	12.659859
459.417969	12.656816
457.544922	18.980659
455.671875	16.445950
453.796875	8.853382
451.923828	13.909111
450.048828	12.641603
448.173828	15.166273
446.296875	25.271038
444.421875	24.001705
442.544922	22.732983
440.667969	13.889031
438.791016	20.197361
436.912109	21.454525
435.033203	21.449354
433.154297	17.659914
431.275391	13.872301
429.396484	20.173025
427.515625	21.428669
425.634766	32.765350
423.753906	16.378721
421.873047	18.893963
419.990234	16.370813
418.107422	21.402817
416.224609	18.880276
414.341797	15.100571
412.458984	21.387306
410.574219	17.608818
408.689453	16.347092
406.804688	11.314480
404.917969	15.082324
403.031250	27.644238
401.146484	45.225079
399.257812	60.285507
397.371094	71.571709
395.482422	70.299034
393.593750	79.067253
391.705078	52.698734
389.816406	46.413822
387.927734	40.131954
386.037109	28.837849
384.146484	32.591404
382.253906	37.596344
380.363281	32.575592
378.470703	33.820290
376.578125	67.624161
374.685547	78.875702
372.792969	62.584560
370.898438	43.798550
369.003906	46.290077
367.109375	36.272594
365.212891	32.512352
363.318359	31.254278
361.421875	26.247210
359.525391	42.485146
357.628906	46.222584
355.730469	42.464474
353.832031	48.697392
351.933594	42.443802
350.035156	42.433464
348.134766	46.166348
346.236328	31.185877
344.335938	29.931147
342.433594	28.677023
340.533203	37.395695
338.630859	36.140354
336.728516	29.901964
334.826172	19.929779
332.923828	27.396759
331.019531	28.635075
329.115234	24.893986
327.210938	27.376698
325.306641	26.125919
323.400391	19.900599
321.494141	19.895735
319.587891	22.377232
317.681641	31.071890
315.773438	26.094004
313.867188	36.025761
311.958984	59.614258
310.048828	180.040665
308.140625	176.272522
306.230469	63.293648
304.320312	29.777950
302.410156	21.087547
300.498047	27.283081
298.587891	34.715412
296.675781	45.862690
294.761719	35.937618
292.849609	22.300638
290.935547	30.965509
289.021484	26.004646
287.107422	37.140377
285.193359	30.942715
283.277344	23.510689
281.361328	19.793612
279.445312	27.209530
277.529297	35.858292
275.611328	32.140911
273.693359	37.076550
271.775391	45.716499
269.857422	38.293591
267.939453	44.459038
266.019531	51.856110
264.099609	60.483902
262.177734	95.022728
260.257812	149.284653
258.335938	178.850769
256.414062	196.070801
254.492188	297.115814
252.568359	1165.984497
250.646484	2192.151123
248.722656	1426.579468
246.796875	539.453918
244.873047	183.467575
242.947266	115.716080
241.021484	120.610382
239.095703	114.428528
237.169922	84.877609
235.242188	76.247993
233.314453	50.409599
231.386719	50.397137
229.457031	40.553520
227.529297	44.229263
225.599609	33.163738
223.669922	29.471586
221.738281	38.058041
219.806641	35.593868
217.876953	41.720409
215.943359	45.390377
214.011719	34.340961
212.078125	35.558613
210.146484	33.098087
208.210938	29.413225
206.277344	23.279696
204.341797	24.498863
202.408203	12.246392
200.472656	18.365028
198.535156	19.584499
196.599609	25.698273
194.662109	17.127926
192.724609	19.569908
190.785156	18.342230
188.847656	19.560181
186.908203	21.999733
184.968750	17.106647
183.029297	29.318384
181.087891	20.762022
179.146484	15.872888
177.205078	15.868936
175.263672	14.644600
173.320312	17.081110
171.376953	26.835056
169.433594	30.486782
167.490234	24.383345
165.546875	17.064085
163.601562	18.278389
161.656250	18.273829
159.708984	23.141071
157.763672	31.658825
155.816406	25.564203
153.869141	19.472624
151.921875	23.117964
149.972656	14.597171
148.023438	21.890284
146.074219	18.237341
144.125000	24.310373
142.173828	21.873863
140.224609	36.447315
138.273438	15.789884
136.320312	31.571861
134.369141	37.633945
132.416016	31.556047
130.462891	27.907970
128.509766	25.474804
126.554688	32.745110
124.599609	24.249554
122.644531	21.819124
120.689453	25.449257
118.732422	19.385044
116.777344	26.647745
114.820312	23.008183
112.861328	20.581099
110.904297	14.524183
108.945312	18.150667
106.986328	9.677922
105.027344	13.303797
103.066406	12.091319
101.105469	9.670622
99.144531	4.834094
97.183594	4.832877
95.220703	7.247490
93.257812	3.622833
91.294922	3.621920
89.332031	-1.207002
87.367188	0.000000
85.404297	3.619182
83.437500	3.618269
81.472656	7.234713
79.507812	3.616443
77.541016	1.205177
75.574219	6.024363
73.605469	-4.818273
71.638672	8.429848
69.669922	6.019798
67.701172	-1.203655
65.730469	3.610053
63.761719	2.406093
61.791016	3.608227
59.820312	-2.404876
57.847656	4.808535
55.875000	4.807317
53.904297	7.209150
51.929688	-3.603662
49.957031	0.000000
47.982422	0.000000
46.007812	4.801229
44.033203	1.200003
