#Wave		#Intensity
899.963257	135.515167
899.920715	180.686905
899.878235	103.878296
899.835815	153.534576
899.793274	144.479935
899.750793	135.428207
899.708252	99.298080
899.665771	85.743668
899.623230	148.899323
899.580688	166.920929
899.538208	135.319580
899.495667	184.907074
899.453186	126.257736
899.410645	153.288361
899.368103	139.740494
899.325623	135.211044
899.283020	139.695648
899.240540	171.212357
899.197998	112.621635
899.155396	103.595276
899.112854	144.109436
899.070312	144.086304
899.027771	139.561218
898.985229	144.040085
898.942688	157.518555
898.900085	130.494431
898.857544	125.974411
898.814941	103.462379
898.772400	166.412781
898.729797	130.410706
898.687256	103.412590
898.644714	112.386955
898.602112	157.316498
898.559570	98.868790
898.516907	148.279388
898.474304	170.718567
898.431763	161.707428
898.389221	130.243423
898.346558	98.789505
898.304016	67.345673
898.261353	121.202766
898.218750	125.671600
898.176147	94.238579
898.133606	121.144447
898.090942	121.125015
898.048340	89.707840
898.005676	49.331398
897.963074	121.066734
897.920471	125.530548
897.877808	71.720238
897.835205	179.271835
897.792542	107.545845
897.749939	80.646446
897.707275	152.307739
897.664673	120.930862
897.622009	138.824280
897.579346	156.711945
897.536743	94.012085
897.494080	138.757492
897.451477	152.161224
897.408752	107.390694
897.366089	161.060196
897.323425	165.507553
897.280823	134.173782
897.238098	152.039230
897.195435	111.775627
897.152710	125.168625
897.110046	49.165501
897.067383	58.095364
897.024719	102.767624
896.982056	165.295319
896.939331	214.402771
896.896667	116.116211
896.854004	111.632294
896.811279	120.543541
896.768555	156.235092
896.725830	107.115456
896.683167	129.410416
896.640442	116.004524
896.597778	13.382991
896.555054	160.570145
896.512268	75.812630
896.469604	151.600937
896.426880	106.995270
896.384094	115.892952
896.341431	142.614609
896.298706	102.487816
896.255920	98.016106
896.213257	151.455139
896.170532	120.253914
896.127747	111.328362
896.085022	102.405670
896.042236	53.420479
895.999512	120.176804
895.956787	106.806702
895.913940	120.138268
895.871216	155.709824
895.828430	102.307190
895.785767	80.053658
895.742981	155.634933
895.700195	151.163986
895.657410	115.577454
895.614624	137.781799
895.571838	115.540398
895.529114	75.533531
895.486267	137.715530
895.443481	93.276215
895.400757	146.553406
895.357910	142.089615
895.315125	106.550117
895.272339	106.533035
895.229553	150.897614
895.186768	159.748322
895.143921	124.228775
895.101135	124.208862
895.058350	119.753632
895.015442	146.342087
894.972656	133.016937
894.929871	172.894287
894.887024	101.946953
894.844238	132.952972
894.801392	128.500595
894.758545	137.340698
894.715698	66.444519
894.672913	110.723114
894.630066	106.277153
894.587219	97.405106
894.544373	128.377060
894.501526	146.060822
894.458679	132.761276
894.415894	154.863327
894.372986	101.751022
894.330078	154.813690
894.287292	137.098709
894.244446	128.233078
894.201538	172.423737
894.158691	176.816513
894.115845	128.171432
894.072876	83.960922
894.030029	101.620621
893.987183	145.780121
893.944275	101.588043
893.901428	105.987923
893.858521	123.632759
893.815552	158.930923
893.772766	150.077377
893.729858	123.573326
893.686951	158.854523
893.644043	105.886040
893.601135	88.224228
893.558167	132.315125
893.515320	83.786148
893.472412	92.590904
893.429504	132.251526
893.386536	149.861038
893.343689	118.988220
893.300720	132.187943
893.257812	140.977875
893.214844	136.550430
893.171936	79.274643
893.129028	114.489464
893.086060	57.235558
893.043091	83.638565
893.000183	176.052979
892.957275	92.412994
892.914307	114.397758
892.871338	114.379425
892.828430	105.564087
892.785461	180.309753
892.742493	123.118637
892.699524	136.288071
892.656555	145.057602
892.613525	162.614273
892.570618	162.588226
892.527649	153.775024
892.484619	109.821701
892.441711	153.725754
892.398682	131.743805
892.355652	96.596649
892.312744	48.290585
892.269775	65.840248
892.226746	87.772926
892.183777	118.474464
892.140686	179.876846
892.097717	118.436501
892.054749	83.330849
892.011719	171.020126
891.968750	39.459858
891.925720	131.511795
891.882751	131.490723
891.839722	148.998932
891.796692	122.685349
891.753662	105.142021
891.710632	131.406464
891.667603	153.282974
891.624573	113.849113
891.581482	175.124420
891.538513	118.190041
891.495422	113.794403
891.452454	105.024155
891.409363	87.506104
891.366272	83.117485
891.323242	174.956146
891.280273	148.688889
891.237122	157.410080
891.194092	139.897644
891.151062	148.617447
891.107971	179.186432
891.064880	96.133415
891.021851	200.974030
890.978760	109.207520
890.935730	174.704041
890.892639	122.273232
890.849548	109.155037
890.806458	148.427078
890.763367	174.592117
890.720276	161.471832
890.677185	135.265533
890.634155	161.420105
890.591003	135.222198
890.547913	130.839233
890.504761	104.654617
890.461731	139.517136
890.418579	135.135574
890.375488	95.887299
890.332336	61.009418
890.289246	130.713516
890.246155	139.405426
890.203003	165.517426
890.159912	121.940666
890.116760	78.377876
890.073669	74.011688
890.030457	147.999664
889.987366	178.441605
889.944214	100.085350
889.901062	147.928558
889.857910	130.504288
889.814758	182.676743
889.771606	152.206238
889.728516	186.966278
889.685364	95.641838
889.642212	104.319839
889.598999	95.611206
889.555908	65.179016
889.512695	73.857719
889.469543	199.818283
889.426392	82.520424
889.383240	91.192169
889.340027	121.570091
889.296875	86.821869
889.253723	173.615921
889.210449	156.229309
889.167297	130.170227
889.124146	99.781197
889.080933	95.427597
889.037781	73.727692
888.994507	156.104233
888.951294	108.388351
888.908081	69.357437
888.864868	104.019493
888.821716	82.335571
888.778503	142.980988
888.735291	151.622208
888.692078	69.301910
888.648804	138.581619
888.605652	77.939682
888.562378	181.830124
888.519226	138.515045
888.475952	116.853355
888.432739	147.125107
888.389465	77.877289
888.346252	86.516457
888.303040	99.477997
888.259766	82.164314
888.216492	138.359833
888.173279	116.722420
888.130066	129.670807
888.086731	133.971710
888.043457	120.987320
888.000244	142.569366
887.956970	138.226944
887.913696	129.567001
887.870483	142.500885
887.827209	155.430618
887.783936	90.653336
887.740601	151.064697
887.697327	138.094177
887.654053	112.183548
887.610779	142.364014
887.567505	142.341217
887.524231	142.318420
887.480957	146.607620
887.437622	150.895432
887.394348	103.454590
887.351074	181.016541
887.307739	99.112228
887.264404	168.032959
887.221130	142.158966
887.177734	167.979141
887.134460	77.516418
887.091125	133.479126
887.047852	120.542480
887.004517	146.349579
886.961182	124.807587
886.917908	73.151352
886.874573	98.953629
886.831238	55.921356
886.787842	141.931488
886.744568	129.007965
886.701172	141.886032
886.657837	184.852188
886.614502	124.647797
886.571167	111.735306
886.527832	120.311058
886.484436	133.180206
886.441101	133.158875
886.397766	133.137558
886.354370	128.822159
886.310974	150.268463
886.267639	111.610123
886.224304	145.928329
886.180908	141.613632
886.137451	150.172241
886.094177	163.018036
886.050781	145.834885
886.007385	124.368660
885.963989	145.788193
885.920593	77.169624
885.877197	115.735901
885.833862	128.574860
885.790405	145.694839
885.747009	167.093796
885.703613	119.945564
885.660217	192.738785
885.616821	154.166351
885.573364	141.296524
885.529968	107.025681
885.486511	149.811966
885.443115	85.593132
885.399719	94.137367
885.356323	106.957153
885.312805	149.716034
885.269409	102.645988
885.225952	124.010712
885.182556	162.470779
885.139099	141.070450
885.095642	59.838490
885.052185	85.469872
885.008728	81.183380
884.965332	128.163757
884.921875	149.500443
884.878418	98.227417
884.835022	93.941620
884.791504	89.657188
884.748108	119.523781
884.704590	132.308716
884.661072	106.683487
884.617615	115.199722
884.574219	132.245178
884.530762	51.183483
884.487244	144.996658
884.443726	162.029129
884.400269	102.317810
884.356812	21.312798
884.313232	89.499420
884.269836	140.619431
884.226257	161.899475
884.182739	195.952194
884.139343	144.811050
884.095825	132.012466
884.052307	136.249115
884.008789	136.227295
883.965332	170.256866
883.921753	110.649239
883.878235	148.927063
883.834717	72.324417
883.791199	148.879379
883.747681	144.602524
883.704163	51.028015
883.660645	80.781425
883.617126	123.278221
883.573547	165.761414
883.530029	114.739525
883.486511	63.733978
883.442932	123.199295
883.399414	127.427147
883.355896	97.678505
883.312317	84.924232
883.268738	157.084671
883.225220	114.611008
883.181641	97.615967
883.138062	110.330818
883.094482	131.527222
883.050964	148.474716
883.007385	148.450943
882.963745	152.667953
882.920227	89.042046
882.876648	152.619080
882.833069	67.819839
882.789429	72.047043
882.745911	101.697197
882.702332	182.178299
882.658691	114.372719
882.615112	135.531143
882.571533	97.397415
882.527954	131.253769
882.484314	160.865952
882.440735	135.444382
882.397156	63.479389
882.353516	165.019989
882.309875	139.609955
882.266296	63.448910
882.222656	173.399261
882.179016	101.485756
882.135437	97.241615
882.091797	76.089951
882.048218	122.569740
882.004517	143.679443
881.960876	156.332016
881.917236	59.143185
881.873657	147.834290
881.829956	114.025345
881.786316	118.229576
881.742737	97.101601
881.699036	80.201530
881.655396	105.511429
881.611694	143.472580
881.568054	130.792297
881.524414	147.645081
881.480774	126.532661
881.437073	147.597809
881.393372	172.872620
881.349731	160.197754
881.306091	113.806496
881.262390	88.501991
881.218689	160.120834
881.174988	117.964882
881.131348	130.583069
881.087646	105.292068
881.044006	168.440353
881.000244	193.675385
880.956604	168.386429
880.912903	101.015678
880.869141	126.249390
880.825500	117.813904
880.781799	143.036835
880.738098	143.013947
880.694397	142.991043
880.650574	75.689026
880.606934	121.923904
880.563232	151.329590
880.519470	138.696579
880.475769	37.820286
880.432007	109.241112
880.388306	121.826355
880.344604	121.806854
880.300842	104.989098
880.257080	104.972290
880.213379	113.351929
880.169617	104.938690
880.125854	54.559383
880.082092	142.670929
880.038391	33.564255
879.994629	104.871513
879.950867	58.718647
879.907104	163.547180
879.863342	104.821159
879.819580	71.266975
879.775818	113.170609
879.732056	104.770828
879.688293	125.704872
879.644531	117.305763
879.600708	125.664627
879.556946	134.020813
879.513123	133.999359
879.469299	117.230675
879.425598	154.887161
879.381775	125.564087
879.338013	87.880791
879.294189	100.419113
879.250427	83.669197
879.206604	188.225555
879.162781	163.102707
879.119019	183.983856
879.075134	129.604233
879.031372	79.422142
878.987549	183.895508
878.943726	83.575493
878.899963	100.274536
878.856140	171.274902
878.812317	87.712128
878.768433	141.987381
878.724609	87.684052
878.680786	150.291458
878.636963	116.874641
878.593079	137.723068
878.549255	154.392044
878.505432	125.162704
878.461609	91.771294
878.417725	45.878300
878.373840	129.272690
878.330017	112.574326
878.286194	187.593842
878.242310	108.370201
878.198425	141.692200
878.154602	83.335007
878.110718	170.809418
878.066895	104.135414
878.022949	116.612991
877.979065	129.086578
877.935181	133.229324
877.891296	141.533508
877.847473	158.159180
877.803589	149.811035
877.759705	99.858032
877.715759	187.203842
877.671936	120.623161
877.627991	124.762611
877.584106	103.952202
877.540222	199.556274
877.496277	99.762161
877.452393	153.775391
877.408447	149.595337
877.364563	132.952347
877.320679	120.468781
877.276672	112.142639
877.232788	103.819153
877.188904	141.171448
877.144958	145.300278
877.101013	58.110809
877.057068	112.052910
877.013184	145.230515
876.969238	116.165817
876.925354	66.369843
876.881348	95.391373
876.837402	132.697189
876.793457	91.214714
876.749512	161.672928
876.705566	74.606331
876.661560	103.603310
876.617676	145.021423
876.573730	140.855392
876.529724	140.832855
876.485779	99.395508
876.441833	128.365311
876.397888	132.484924
876.353821	107.626770
876.309875	132.442505
876.265869	128.283142
876.221924	107.575089
876.177917	111.694710
876.133972	78.587402
876.089966	165.420670
876.046021	70.292534
876.002014	124.025787
875.958008	95.071213
875.913940	132.251816
875.869995	90.908569
875.825989	103.288658
875.781982	45.439735
875.737976	86.734695
875.693970	103.239059
875.649902	94.964729
875.605896	165.129623
875.561890	86.679169
875.517883	107.299889
875.473877	123.787743
875.429810	115.516731
875.385864	123.748116
875.341736	90.734093
875.297791	115.461266
875.253723	98.950958
875.209656	152.524979
875.165588	111.284187
875.121521	144.234192
875.077454	86.526657
875.033447	119.470070
874.989380	140.045929
874.945374	152.378525
874.901306	168.824844
874.857239	94.691460
874.813110	94.676308
874.769104	123.471062
874.725037	135.796432
874.680969	90.516457
874.636841	123.411774
874.592773	131.618149
874.548706	78.135765
874.504639	90.458511
874.460571	168.554779
874.416443	90.429550
874.372437	152.061707
874.328308	127.382660
874.284180	45.193062
874.240051	168.419907
874.196045	151.964355
874.151917	160.153000
874.107788	131.386551
874.063660	127.260353
874.019531	123.135460
873.975464	139.531189
873.931335	143.612045
873.887207	123.076332
873.843079	102.547188
873.798950	168.150467
873.754822	118.916656
873.710754	118.897621
873.666565	77.885971
873.622437	86.070709
873.578308	168.015915
873.534180	155.697128
873.489990	98.319290
873.445862	139.263367
873.401672	126.955086
873.357605	147.408112
873.313416	106.444366
873.269287	130.987488
873.225098	139.151917
873.180969	77.748917
873.136780	118.650398
873.092590	159.538788
873.048462	134.972748
873.004272	130.861710
872.960083	151.284622
872.915894	143.084167
872.871765	114.449005
872.827576	85.823013
872.783386	126.670830
872.739197	159.334564
872.695007	126.630272
872.650818	114.357414
872.606567	130.673264
872.562439	118.403687
872.518188	151.042587
872.474060	138.773666
872.429810	122.427750
872.385559	122.408142
872.341370	110.149689
872.297241	89.737228
872.252930	171.289108
872.208740	110.096794
872.164551	154.926239
872.120361	126.366951
872.076050	118.195320
872.031860	134.476593
871.987610	134.455063
871.943359	126.286041
871.899109	61.096367
871.854919	114.028290
871.810608	109.938240
871.766418	146.560852
871.722168	113.973526
871.677917	122.094940
871.633667	134.282928
871.589417	105.781731
871.545166	154.579315
871.500916	97.613403
871.456665	101.664352
871.412354	113.845840
871.368103	126.023430
871.323853	121.938629
871.279602	142.238953
871.235229	60.949791
871.190979	117.817398
871.146790	113.736511
871.102417	170.577454
871.058105	93.396500
871.013916	113.681885
870.969604	182.673767
870.925293	125.821785
870.880981	150.150345
870.836731	89.264282
870.792419	117.647713
870.748047	89.235703
870.703796	97.332451
870.659485	121.646080
870.615173	68.921738
870.570862	68.910706
870.526550	109.428886
870.482178	117.515907
870.437866	129.651962
870.393555	157.988022
870.349243	166.063370
870.304932	129.589691
870.260559	149.814087
870.216248	141.693329
870.171875	174.052490
870.127563	117.365448
870.083252	101.160904
870.038879	56.641037
869.994507	133.489639
869.950195	153.690720
869.905823	68.745361
869.861511	97.036736
869.817078	125.319046
869.772766	88.921852
869.728394	117.196404
869.684021	80.812157
869.639648	161.598434
869.595276	121.179420
869.550903	133.276016
869.506531	149.406754
869.462158	104.971718
869.417786	125.138542
869.373413	92.829857
869.328979	100.885857
869.284607	104.904488
869.240234	96.819405
869.195862	125.038368
869.151428	84.689842
869.107056	133.062729
869.062622	96.757393
869.018250	116.896461
868.973877	76.575073
868.929443	68.503563
868.885010	68.492592
868.840637	104.736603
868.796143	116.802887
868.751770	153.027542
868.707336	189.240601
868.662903	165.055786
868.618469	169.054459
868.574036	185.125229
868.529663	88.523972
868.485229	140.811035
868.440735	112.630783
868.396301	80.437675
868.351868	112.594711
868.307434	80.411911
868.263000	176.877869
868.218506	100.482697
868.174072	76.354614
868.129578	120.540611
868.085144	128.556061
868.040710	64.267731
867.996277	140.563141
867.951721	92.355270
867.907288	188.695770
867.862793	136.481461
867.818359	136.459595
867.773865	164.527863
867.729370	116.354721
867.684937	120.347679
867.640442	104.284615
867.595947	160.412170
867.551514	132.318848
867.506958	92.207451
867.462463	100.209435
867.417969	172.332626
867.373535	204.361771
867.328979	84.135483
867.284485	104.151054
867.239929	84.108528
867.195435	172.194641
867.150940	116.112671
867.106445	144.116776
867.061890	164.106705
867.017395	124.060799
866.972839	148.048843
866.928345	104.017662
866.883789	156.001495
866.839294	143.978317
866.794739	127.960220
866.750183	131.937836
866.705688	111.929321
866.661133	127.898735
866.616638	123.882050
866.572021	79.911102
866.527527	139.822021
866.482910	111.839699
866.438416	115.815422
866.393860	183.677780
866.349304	139.732452
866.304749	135.718353
866.260193	167.625214
866.215637	131.684433
866.171021	103.734749
866.126465	99.728966
866.081909	119.655594
866.037292	99.697014
865.992676	87.719322
865.948181	143.517715
865.903564	95.663147
865.859009	123.545097
865.814392	127.509995
865.769836	143.425751
865.725159	87.635033
865.680603	119.483170
865.635986	103.535492
865.591431	111.481895
865.546753	159.234329
865.502197	151.248383
865.457581	127.346649
865.412964	115.389412
865.368347	103.435997
865.323792	107.397095
865.279114	143.173187
865.234497	127.244667
865.189880	119.272758
865.145264	99.378044
865.100647	119.234543
865.055969	119.215439
865.011353	79.464226
864.966675	79.451492
864.922058	91.354576
864.877441	115.167747
864.832825	127.061287
864.788147	95.280693
864.743469	127.020569
864.698853	119.062706
864.654175	75.394295
864.609497	130.927002
864.564880	91.237534
864.520203	190.378250
864.475586	118.967346
864.430908	107.053452
864.386169	138.750763
864.341492	107.019142
864.296875	142.669327
864.252136	194.157684
864.207520	99.044174
864.162781	102.989433
864.118103	110.893921
864.073425	126.715599
864.028687	158.369125
863.984009	130.633591
863.939331	142.486526
863.894653	71.231850
863.849976	142.440857
863.805237	150.330154
863.760559	102.840988
863.715820	134.462814
863.671143	201.661896
863.626404	122.559158
863.581665	83.010643
863.536987	146.233398
863.492249	102.742142
863.447571	130.382584
863.402832	122.460983
863.358093	142.189957
863.313354	110.574463
863.268616	86.866013
863.223877	86.852089
863.179138	114.468498
863.134338	118.396706
863.089600	86.810341
863.044861	106.522888
863.000183	71.003876
862.955444	110.432770
862.910645	130.132050
862.865906	55.198685
862.821106	122.206070
862.776367	114.303482
862.731628	122.166901
862.686890	106.386375
862.642090	122.127739
862.597290	110.291245
862.552490	145.718643
862.507751	98.442757
862.463013	185.042725
862.418213	118.093445
862.373352	157.432678
862.328613	125.925957
862.283813	173.120438
862.239014	157.356995
862.194275	74.732590
862.149475	106.181923
862.104675	102.232864
862.059814	86.490868
862.015076	176.884781
861.970215	161.135849
861.925415	180.757584
861.880615	110.008713
861.835754	153.201859
861.790955	145.322052
861.746155	161.006729
861.701294	117.790916
861.656494	141.326447
861.611694	153.079102
861.566833	125.583229
861.522034	109.867706
861.477173	153.005493
861.432373	101.987305
861.387512	113.736839
861.342651	141.167923
861.297852	121.541779
861.252991	156.802963
861.208130	97.986137
861.163269	156.752686
861.118408	148.891174
861.073608	105.774132
861.028687	105.757179
860.983826	117.489136
860.938965	140.964355
860.894165	156.601944
860.849243	176.148941
860.804382	97.844833
860.759460	101.742310
860.714600	164.326614
860.669739	70.414398
860.624817	117.338516
860.580017	117.319702
860.535095	136.851044
860.490173	93.825668
860.445251	121.172050
860.400391	82.071129
860.355469	156.300903
860.310608	156.275833
860.265686	113.281815
860.220764	128.886215
860.175903	39.050167
860.130920	101.514153
860.086060	101.497879
860.041138	105.384743
859.996216	81.952766
859.951294	97.547173
859.906372	62.420177
859.861450	167.727325
859.816467	109.200279
859.771606	97.484612
859.726685	124.760292
859.681702	109.147751
859.636780	74.052666
859.591858	116.906517
859.546936	124.680283
859.501953	144.138458
859.457031	120.745285
859.412109	175.247299
859.367065	85.662720
859.322144	105.114662
859.277161	116.775337
859.232239	116.756607
859.187256	128.411667
859.142273	151.734909
859.097290	136.150513
859.052429	182.801361
859.007385	163.328201
858.962402	93.315437
858.917419	136.063187
858.872498	93.285500
858.827454	104.929359
858.782532	128.226425
858.737488	128.205856
858.692505	174.798126
858.647522	151.467407
858.602478	143.676804
858.557495	139.771225
858.512512	89.283958
858.467529	147.488968
858.422485	120.300644
858.377502	143.561600
858.332458	85.347260
858.287537	124.121559
858.242493	116.345291
858.197449	127.959297
858.152405	139.569565
858.107422	89.155144
858.062378	135.649094
858.017334	131.752274
857.972290	170.475586
857.927307	147.205307
857.882263	112.322868
857.837219	123.922585
857.792236	100.670952
857.747131	108.397476
857.702087	123.862953
857.657043	77.401924
857.611938	123.823212
857.566956	108.327934
857.521912	174.070526
857.476807	162.439758
857.431763	131.477753
857.386719	127.590294
857.341614	123.704071
857.296570	135.279617
857.251465	139.122421
857.206421	123.644531
857.161316	154.530869
857.116272	154.506073
857.071167	119.723000
857.026123	111.980965
856.981018	104.241409
856.935974	131.245895
856.890869	146.663055
856.845764	131.203781
856.800659	169.765884
856.755554	119.588585
856.710510	131.140625
856.665344	65.559792
856.620239	104.107666
856.575134	142.643173
856.530029	138.765686
856.484924	119.473495
856.439758	115.600960
856.394653	142.551636
856.349548	219.571335
856.304443	123.248337
856.259338	107.824982
856.214233	142.460144
856.169006	103.940727
856.123962	153.961548
856.078796	115.452629
856.033630	142.368729
855.988525	142.345871
855.943420	142.323029
855.898254	115.378532
855.853027	207.648026
855.807922	153.788666
855.762756	130.699387
855.717590	119.147957
855.672485	142.186035
855.627258	88.371727
855.582153	149.823654
855.536987	103.707420
855.491821	126.733170
855.446655	134.392395
855.401489	168.923325
855.356262	107.479408
855.311096	161.193237
855.265930	126.631493
855.220764	138.121277
855.175537	122.754761
855.130371	95.886765
855.085205	172.568466
855.039978	118.861412
854.994812	88.173347
854.949646	126.489273
854.904358	153.295715
854.859192	134.112228
854.814026	157.077667
854.768799	134.069168
854.723511	172.346970
854.678406	187.636581
854.633179	145.490723
854.587952	130.155014
854.542725	99.514320
854.497498	145.420654
854.452209	202.790985
854.407043	99.466400
854.361755	103.275452
854.316589	149.151703
854.271301	110.889870
854.226074	152.926987
854.180908	156.724991
854.135681	114.658409
854.090332	179.602676
854.045105	206.318878
853.999878	141.343933
853.954651	190.974655
853.909363	190.943985
853.864136	106.911461
853.818848	118.347260
853.773621	148.864578
853.728333	95.410690
853.683044	156.448410
853.637817	91.564850
853.592529	144.954391
853.547241	125.861237
853.501953	160.161301
853.456726	87.693298
853.411438	186.794846
853.366089	133.403473
853.320801	175.302109
853.275513	95.257591
853.230225	121.910133
853.184937	167.599518
853.139648	171.381073
853.094421	129.467117
853.049072	91.373878
853.003784	186.525040
852.958435	98.956573
852.913147	121.773148
852.867859	129.363190
852.822571	167.384308
852.777222	125.518066
852.731873	110.286041
852.686584	163.501312
852.641296	102.647125
852.595886	133.039719
852.550598	159.622009
852.505249	151.996552
852.459900	155.771439
852.414551	98.766022
852.369263	132.932907
852.323914	170.886276
852.278564	186.046280
852.233215	178.423889
852.187927	174.599594
852.142517	132.826172
852.097168	159.365799
852.051819	140.371140
852.006470	159.314606
851.961121	106.192680
851.915771	140.303497
851.870361	151.655090
851.825012	170.584564
851.779602	144.026047
851.734253	136.423813
851.688843	162.924484
851.643555	166.686646
851.598145	178.023041
851.552734	177.994431
851.507324	143.887268
851.461975	170.365448
851.416565	166.552780
851.371216	196.803482
851.325806	151.362976
851.280396	162.689056
851.235046	166.445770
851.189636	196.677032
851.144165	192.863785
851.098755	143.679337
851.053345	177.680115
851.007935	86.935867
850.962524	120.934814
850.917175	158.701447
850.871765	151.119949
850.826294	166.205231
850.780945	113.303535
850.735474	128.390045
850.690002	177.451828
850.644592	177.423309
850.599182	117.005081
850.553711	169.818787
850.508301	124.513771
850.462891	169.764221
850.417419	116.929886
850.372009	203.651596
850.326538	203.618866
850.281067	169.655121
850.235657	128.163269
850.190186	154.524979
850.144714	150.731842
850.099182	128.101486
850.053772	161.984650
850.008301	154.425659
849.962830	120.507973
849.917358	131.784409
849.871887	154.351212
849.826355	176.910751
849.780945	131.720871
849.735474	116.648308
849.690002	135.440781
849.644470	165.512115
849.598999	161.724487
849.553528	112.812897
849.507996	172.951965
849.462524	169.164948
849.417053	180.413605
849.371521	157.836533
849.325989	139.024109
849.280518	131.488159
849.234985	146.491821
849.189514	169.001846
849.143982	168.974686
849.098450	112.631676
849.052979	172.674149
849.007446	142.620926
848.961914	183.876358
848.916443	116.311241
848.870911	123.795288
848.825378	228.796921
848.779846	165.007309
848.734253	161.231216
848.688721	161.205292
848.643250	206.159668
848.597656	194.883255
848.552124	138.644638
848.506592	104.903397
848.461060	134.854111
848.415466	119.851044
848.369934	164.768692
848.324341	190.951172
848.278809	232.099396
848.233276	145.974533
848.187683	194.601410
848.142151	130.960663
848.096558	149.645248
848.050964	190.767014
848.005371	127.157562
847.959839	172.009033
847.914246	153.287735
847.868652	149.524963
847.823120	183.138626
847.777466	142.003036
847.731934	160.661804
847.686340	138.221634
847.640747	168.080368
847.595093	138.177185
847.549500	186.695892
847.503906	197.865814
847.458313	179.170410
847.412720	205.266403
847.367188	212.696426
847.321533	149.236649
847.275879	160.403580
847.230286	175.296646
847.184692	171.539337
847.139038	149.140640
847.093445	182.667908
847.047791	152.819992
847.002197	204.969452
846.956543	141.592468
846.910950	156.471771
846.865356	119.197411
846.819641	175.043030
846.773987	182.462311
846.728333	156.371109
846.682739	93.063065
846.637085	141.433105
846.591431	133.967697
846.545776	156.270508
846.500183	156.245361
846.454468	152.500702
846.408813	171.070816
846.363159	208.226624
846.317505	111.532028
846.271851	185.856796
846.226135	122.645752
846.180481	204.376694
846.134827	118.890945
846.089172	126.301308
846.043457	181.993179
845.997803	155.969055
845.952148	126.240349
845.906433	174.480637
845.860718	174.452560
845.815002	122.468254
845.769348	170.685852
845.723633	155.818527
845.677979	152.084091
845.632324	137.224533
845.586548	196.533234
845.540894	185.378876
845.495178	215.004883
845.449463	185.319214
845.403748	170.466232
845.358032	148.207657
845.312317	222.275696
845.266602	170.383942
845.220886	137.025894
845.175110	207.357162
845.129456	185.110535
845.083679	185.080734
845.037964	207.257065
844.992249	207.223709
844.946533	159.092590
844.900818	133.172363
844.854980	203.425018
844.809265	136.827530
844.763550	158.990173
844.717773	177.448837
844.672058	140.457718
844.626282	199.565689
844.580505	144.107574
844.534729	184.723557
844.489014	147.755051
844.443237	118.185013
844.397522	195.712418
844.351746	173.528351
844.305969	191.957901
844.260193	143.945251
844.214417	125.470528
844.168640	225.072647
844.122803	154.943100
844.077087	169.672272
844.031250	213.900146
843.985474	188.054337
843.939697	239.638504
843.893982	154.818405
843.848145	224.819107
843.802368	228.467865
843.756531	128.953033
843.710754	254.180756
843.664917	246.773453
843.619141	162.034088
843.573303	239.329987
843.527527	235.610046
843.481689	187.721512
843.435913	172.970398
843.390137	206.059204
843.344299	202.346985
843.298462	228.063507
843.252625	194.926117
843.206787	191.217468
843.160950	213.246674
843.115112	198.508026
843.069336	198.476059
843.023438	227.843216
842.977661	202.086426
842.931763	213.074997
842.885986	157.943954
842.840088	213.006363
842.794250	242.347519
842.748413	223.951782
842.702576	223.915695
842.656677	161.486954
842.610840	223.843567
842.565002	223.807510
842.519104	165.077316
842.473206	190.725281
842.427429	209.030563
842.381531	164.997543
842.335632	216.295273
842.289795	223.591278
842.243835	186.906860
842.197998	208.862244
842.152161	238.137878
842.106262	205.131882
842.060303	208.761322
842.014465	153.799347
841.968567	190.387558
841.922668	201.339020
841.876770	168.365494
841.830933	190.295547
841.784973	259.784760
841.739075	201.209290
841.693237	212.150146
841.647278	168.229904
841.601318	204.768616
841.555420	212.047607
841.509521	190.081024
841.463562	241.217804
841.417664	171.748627
841.371765	197.296417
841.325867	230.142059
841.279907	237.409897
841.234009	248.327255
841.188049	208.123123
841.142090	149.678467
841.096130	229.956680
841.050232	222.620590
841.004272	266.371857
840.958374	200.658783
840.912415	164.148911
840.866455	218.829941
840.820496	207.854935
840.774536	171.361526
840.728638	156.752304
840.682678	225.978516
840.636719	174.922913
840.590759	276.916626
840.544800	244.084518
840.498779	211.262985
840.452820	178.452026
840.406799	203.912308
840.360901	243.927185
840.314880	163.805283
840.268921	258.406647
840.222900	294.754456
840.176941	261.961700
840.130981	225.541779
840.084961	225.505417
840.039001	214.559265
839.992981	225.432709
839.947021	185.406677
839.901001	232.629700
839.854980	192.615417
839.808960	218.020020
839.763000	170.754822
839.716980	203.419739
839.670959	170.699753
839.625000	170.672226
839.578918	163.383240
839.532959	196.028275
839.486877	235.921906
839.440857	199.594040
839.394836	214.075439
839.348816	243.063416
839.302795	232.142532
839.256775	188.585388
839.210754	271.954315
839.164673	257.408569
839.118652	210.243500
839.072571	199.336685
839.026611	206.551971
838.980530	246.373138
838.934509	253.578506
838.888428	257.159576
838.842407	181.069077
838.796265	267.939026
838.750244	235.313873
838.704224	246.134811
838.658142	184.571335
838.612061	242.436951
838.566040	227.926331
838.519958	256.827942
838.473877	213.385971
838.427734	238.664444
838.381714	235.010391
838.335632	242.202408
838.289551	256.620850
838.243469	224.055298
838.197388	224.019150
838.151245	260.109314
838.105225	260.067322
838.059143	180.573181
838.013000	209.431091
837.966919	191.345810
837.920837	267.118988
837.874695	277.903290
837.828613	238.164383
837.782471	238.125946
837.736450	248.909683
837.690308	256.083130
837.644165	234.404480
837.598083	216.338455
837.551880	259.564240
837.505798	209.059677
837.459717	237.857117
837.413513	227.008789
837.367432	219.766693
837.321289	252.150589
837.275146	230.500473
837.229004	198.054382
837.182861	212.424042
837.136780	269.987000
837.090637	241.149445
837.044434	287.893158
836.998352	241.071625
836.952148	233.837708
836.906006	298.544556
836.859863	240.954910
836.813721	190.575363
836.767578	301.995209
836.721375	230.054443
836.675171	212.047211
836.629028	316.222748
836.582825	247.907364
836.536743	301.751556
836.490540	233.460541
836.444336	269.334045
836.398132	272.881104
836.351990	229.757523
836.305786	258.435486
836.259644	222.505753
836.213440	301.410736
836.167236	211.670975
836.121094	279.791016
836.074890	225.948578
836.028625	233.083908
835.982422	247.387589
835.936218	340.551117
835.890076	243.723541
835.843872	240.100586
835.797668	257.976898
835.751404	275.847412
835.705261	286.548431
835.658997	250.689377
835.612793	236.326111
835.566528	257.768677
835.520325	250.567963
835.474121	286.317139
835.427856	275.535736
835.381653	300.535889
835.335388	286.178436
835.289185	289.708893
835.242920	257.477417
835.196716	253.860336
835.150513	300.293304
835.104248	289.521759
835.057922	264.458649
835.011719	267.989136
834.965454	285.808899
834.919250	271.474579
834.872986	217.858887
834.826660	224.965454
834.780457	196.366684
834.734192	271.299225
834.687927	303.377747
834.641663	303.328735
834.595398	267.599792
834.549072	217.612656
834.502869	274.647003
834.456543	306.699066
834.410278	263.861206
834.364014	313.730194
834.317688	292.292267
834.271423	327.884705
834.225159	374.155762
834.178833	342.029999
834.132568	359.785919
834.086243	381.097748
834.039978	313.375549
833.993652	359.611542
833.947388	320.394165
833.901062	341.698547
833.854736	281.143982
833.808472	345.146332
833.762146	352.205841
833.715820	330.806549
833.669495	405.439301
833.623169	288.028717
833.576843	334.201538
833.530518	341.257050
833.484192	334.093536
833.437866	284.288971
833.391541	266.477844
833.345215	319.721710
833.298889	255.736038
833.252563	330.272308
833.206177	358.624878
833.159851	301.764221
833.113525	323.013000
833.067200	337.156891
833.020813	266.133453
832.974487	280.281921
832.928101	280.236633
832.881775	262.457703
832.835388	351.069061
832.789062	312.010956
832.742676	333.230560
832.696289	297.732361
832.649963	294.140350
832.603577	340.155518
832.557190	265.703552
832.510803	262.118439
832.464417	315.199585
832.418091	297.443665
832.371643	293.855133
832.325317	247.789566
832.278870	336.231476
832.232483	336.177094
832.186096	357.351532
832.139709	343.143524
832.093323	339.551025
832.046936	311.204773
832.000549	364.192139
831.954102	251.004486
831.907776	360.539673
831.861328	282.730469
831.814880	314.486786
831.768494	378.029724
831.722046	317.917511
831.675659	367.311920
831.629272	346.064880
831.582825	307.171173
831.536438	317.711884
831.489929	367.074341
831.443542	307.022125
831.397156	310.500885
831.350708	349.257019
831.304260	261.018555
831.257812	317.403656
831.211365	356.139832
831.164917	306.724274
831.118530	320.774658
831.072021	334.820465
831.025574	299.527740
830.979065	324.142273
830.932678	341.703430
830.886169	313.470978
830.839722	369.765472
830.793274	401.394714
830.746826	327.400604
830.700378	397.744965
830.653931	323.775360
830.607422	355.391541
830.560974	337.743225
830.514465	341.206177
830.468018	334.116913
830.421509	362.194458
830.375061	330.492920
830.328552	333.954742
830.282043	414.739838
830.235535	354.931732
830.189087	295.142975
830.142578	386.434204
830.096130	319.634735
830.049622	347.678223
830.003113	351.133301
829.956543	344.054932
829.910095	305.387085
829.863525	354.472443
829.817078	371.960388
829.770569	340.323761
829.723999	298.173584
829.677490	364.765076
829.630981	340.158508
829.584473	368.153229
829.537964	347.059723
829.491455	434.630676
829.444885	420.542236
829.398376	367.914886
829.351868	388.875641
829.305298	353.784515
829.258789	388.749756
829.212219	371.178406
829.165710	392.125000
829.119141	420.065918
829.072571	370.998138
829.026001	363.939240
828.979492	328.891815
828.932922	423.292206
828.886353	342.776184
828.839783	346.217834
828.793274	349.658356
828.746704	391.553955
828.700134	398.481445
828.653564	370.457825
828.606995	366.903534
828.560425	408.769135
828.513794	363.291504
828.467285	328.306458
828.420715	363.173859
828.374146	356.132050
828.327515	429.383820
828.280945	404.881744
828.234375	404.816162
828.187744	359.390625
828.141113	429.105682
828.094604	397.643311
828.047974	387.116272
828.001404	439.358124
827.954773	386.990875
827.908142	425.272430
827.861572	418.233002
827.814941	355.440460
827.768311	445.970673
827.721680	365.776062
827.675110	365.716797
827.628479	376.104889
827.581909	376.043976
827.535278	435.165558
827.488586	421.172028
827.441956	400.222595
827.395386	424.515167
827.348694	441.841736
827.302063	406.985107
827.255493	417.352966
827.208862	372.079437
827.162170	434.601807
827.115540	420.626373
827.068848	465.742157
827.022217	361.412964
826.975647	465.591217
826.928955	455.093781
826.882263	517.541870
826.835571	482.729279
826.789001	440.983307
826.742249	465.214081
826.695618	489.436951
826.648987	451.180786
826.602295	451.107666
826.555603	433.687073
826.508972	454.430389
826.462280	433.546509
826.415588	485.493378
826.368896	433.405945
826.322266	443.735748
826.275574	398.604218
826.228882	419.332977
826.182190	464.309998
826.135498	460.770294
826.088806	498.798218
826.042053	495.254059
825.995361	495.173767
825.948669	491.631287
825.901978	425.780579
825.855286	508.777222
825.808594	477.550171
825.761841	539.751770
825.715149	473.935913
825.668396	491.153198
825.621765	515.281433
825.575012	529.028687
825.528320	580.800049
825.481567	449.355713
825.434814	480.387054
825.388123	497.586456
825.341370	566.603760
825.294617	476.699036
825.247864	421.361237
825.201172	448.918671
825.154419	535.162354
825.107727	455.677246
825.060974	514.279541
825.014160	590.117676
824.967468	503.761444
824.920654	534.728516
824.873962	565.685486
824.827148	527.657532
824.780396	537.916504
824.733643	558.515015
824.686890	582.553833
824.640137	554.887268
824.593384	541.013489
824.546631	503.026459
824.499817	537.393127
824.453003	637.189758
824.406311	630.198975
824.359497	592.222046
824.312744	602.453735
824.265930	657.428528
824.219177	495.572510
824.172302	602.160522
824.125549	567.659241
824.078735	536.608948
824.031982	622.502930
823.985168	560.505554
823.938354	529.471497
823.891541	567.198792
823.844788	522.425598
823.797974	577.324097
823.751221	584.102173
823.704346	556.524719
823.657532	583.912598
823.610718	635.331177
823.563904	573.422119
823.517090	583.628357
823.470276	593.831238
823.423462	607.462830
823.376648	624.521423
823.329773	627.850952
823.282959	617.458069
823.236084	665.374573
823.189331	651.549683
823.142456	627.443359
823.095642	637.625793
823.048767	613.529480
823.001953	671.688599
822.955017	644.168152
822.908203	654.341187
822.861328	589.153992
822.814514	681.526794
822.767639	643.749878
822.720764	623.103516
822.673950	684.617981
822.627075	677.661743
822.580200	687.817627
822.533386	684.284485
822.486450	646.543823
822.439636	646.438843
822.392700	670.272156
822.345825	697.516907
822.298950	769.195190
822.252075	724.635132
822.205200	663.001831
822.158325	765.403503
822.111450	707.200012
822.064514	700.253357
822.017639	662.571167
821.970764	693.196411
821.923828	734.054260
821.876953	655.421082
821.830078	706.511047
821.783142	638.145447
821.736267	692.633606
821.689331	743.692566
821.642456	733.339111
821.595520	770.733582
821.548584	736.510681
821.501648	698.889587
821.454712	760.132019
821.407837	777.049072
821.360901	800.775696
821.314026	783.610596
821.267029	841.392883
821.220154	759.514709
821.173157	735.553894
821.126221	827.363647
821.079285	806.803833
821.032349	810.076416
820.985413	871.201050
820.938477	908.487854
820.891541	782.465332
820.844604	758.527893
820.797668	816.220215
820.750671	751.480652
820.703735	897.550415
820.656738	887.206787
820.609802	887.062561
820.562866	808.760864
820.515930	774.653381
820.468933	805.100891
820.421997	859.314026
820.375000	859.174316
820.328003	876.011597
820.281006	862.289856
820.234009	879.121155
820.187073	834.859619
820.140076	865.262573
820.093140	895.655640
820.046082	905.686279
819.999146	942.845886
819.952148	881.654907
819.905090	932.368042
819.858093	908.487305
819.811096	972.736755
819.764099	921.747009
819.717163	931.761780
819.670105	968.874695
819.623108	989.039856
819.576111	944.853577
819.529114	998.876282
819.482117	947.931824
819.435059	913.928467
819.388062	1005.157776
819.341064	954.237061
819.294006	950.698547
819.247009	977.605713
819.199951	967.300171
819.152954	1044.920044
819.105896	1044.750122
819.058838	1007.394470
819.011841	1095.109863
818.964783	1010.446228
818.917725	1142.057739
818.870667	1118.223755
818.823669	1185.597290
818.776611	1084.087769
818.729553	1141.314819
818.682434	1279.550171
818.635376	1113.938843
818.588379	1201.508301
818.541321	1116.950928
818.494263	1096.525635
818.447144	1197.548584
818.400146	1241.200439
818.353027	1166.808350
818.306030	1139.644653
818.258911	1220.367554
818.211853	1122.420654
818.164795	1112.127808
818.117676	1219.771973
818.070618	1131.979736
818.023499	1118.321777
817.976440	1236.015991
817.929321	1165.100586
817.882202	1296.215942
817.835144	1238.778809
817.788025	1272.234131
817.740967	1325.869507
817.693848	1238.174072
817.646729	1382.626953
817.599670	1338.676270
817.552551	1368.724976
817.505432	1344.965332
817.458374	1391.812500
817.411255	1371.417969
817.364075	1418.245605
817.316956	1381.052246
817.269897	1431.222534
817.222717	1370.525146
817.175598	1313.206177
817.128479	1376.795044
817.081360	1366.498413
817.034180	1349.491211
816.987061	1409.686523
816.939941	1305.425659
816.892822	1412.582886
816.845642	1445.900391
816.798523	1254.474976
816.751404	1482.319824
816.704224	1472.019165
816.657104	1475.131958
816.609985	1424.611328
816.562744	1464.597046
816.515625	1591.694092
816.468506	1537.828613
816.421265	1547.627686
816.374146	1513.882690
816.326965	1600.703613
816.279785	1506.693115
816.232605	1563.357910
816.185486	1546.367676
816.138306	1546.115845
816.091125	1539.171875
816.043945	1565.685059
815.996765	1542.015381
815.949585	1555.141724
815.902405	1484.667603
815.855164	1494.455688
815.807983	1527.639771
815.760803	1530.733154
815.713623	1537.166992
815.666443	1587.033447
815.619263	1570.071899
815.572083	1559.796021
815.524841	1576.239258
815.477661	1555.948730
815.430420	1572.387207
815.383240	1712.321045
815.335999	1668.656982
815.288757	1651.701172
815.241577	1704.811646
815.194336	1687.855347
815.147156	1824.320923
815.099915	1713.981934
815.052673	1797.053955
815.005432	1680.088257
814.958252	1649.817749
814.911011	1749.521484
814.863770	1732.576904
814.816528	1745.619751
814.769287	1608.772827
814.722046	1698.427246
814.674866	1644.875122
814.627563	1681.227783
814.580322	1690.939575
814.533081	1710.632324
814.485840	1736.973755
814.438599	1693.439575
814.391296	1826.221558
814.344055	1716.168823
814.296753	1822.300659
814.249573	1825.328369
814.202209	1851.625000
814.154968	1934.416626
814.107727	1877.606812
814.060486	1873.978027
814.013184	1900.249268
813.965881	1883.331543
813.918640	1773.430420
813.871338	1932.524658
813.824097	1875.770386
813.776794	1795.798706
813.729431	1878.477417
813.682190	1858.261108
813.634949	1731.882324
813.587585	1751.503296
813.540283	1721.367310
813.492981	1770.828857
813.445740	1863.377319
813.398376	1873.018555
813.351074	1892.600220
813.303833	1799.499634
813.256531	1978.132568
813.209167	1938.054932
813.161865	2020.548096
813.114502	2013.594727
813.067261	2076.180908
813.019958	2003.005493
812.972595	2035.780762
812.925232	2042.067993
812.877930	2121.154053
812.830566	1991.772705
812.783325	1971.599365
812.735962	2093.655762
812.688599	2066.858154
812.641296	2079.746582
812.593933	2029.818848
812.546631	1999.739380
812.499207	2091.947754
812.451904	2015.608032
812.404541	2028.494019
812.357239	2081.014160
812.309875	2202.872803
812.262512	2050.615723
812.215149	2126.217285
812.167786	2076.354736
812.120361	2224.538330
812.073059	2220.875244
812.025635	2213.913818
811.978333	2213.552490
811.930969	2259.367920
811.883545	2400.804932
811.836182	2285.008545
811.788818	2291.228760
811.741394	2369.963379
811.694031	2283.889404
811.646667	2299.992188
811.599304	2339.151611
811.551880	2292.653076
811.504456	2381.203125
811.457092	2393.986328
811.409668	2301.407227
811.362305	2287.864014
811.314941	2307.238281
811.267517	2296.989258
811.220154	2316.355713
811.172729	2306.108154
811.125305	2384.672363
811.077881	2341.530273
811.030457	2314.842773
810.983032	2409.804932
810.935608	2527.745117
810.888184	2507.613281
810.840820	2556.493164
810.793396	2634.926270
810.745911	2595.076904
810.698486	2670.193604
810.651062	2738.717773
810.603638	2689.020996
810.556213	2682.016113
810.508728	2707.835693
810.461365	2713.956787
810.413879	2713.513184
810.366394	2804.927246
810.318970	2676.545654
810.271545	2636.753906
810.224060	2698.624268
810.176636	2662.119873
810.129211	2717.409912
810.081726	2621.921143
810.034302	2873.811279
809.986816	2801.262451
809.939331	2761.495117
809.891907	2803.622070
809.844421	2858.834229
809.796936	2812.528320
809.749451	3024.856201
809.702026	3017.815430
809.654480	3066.410889
809.607056	3134.622803
809.559570	3085.037598
809.512085	3104.159180
809.464600	3283.526123
809.417114	3410.515869
809.369568	3233.412109
809.322144	3249.227539
809.274597	3189.866943
809.227173	3130.525391
809.179626	3244.366943
809.132141	3191.569336
809.084656	3236.773682
809.037109	3125.212891
808.989563	3196.534180
808.942078	3297.213135
808.894592	3293.409912
808.847107	3309.188721
808.799561	3269.491943
808.752014	3347.255615
808.704529	3356.493896
808.656982	3368.990479
808.609497	3335.831055
808.561951	3566.766846
808.514404	3585.741943
808.466858	3611.229248
808.419373	3708.399658
808.371826	3733.858398
808.324280	3716.959473
808.276733	3752.179443
808.229187	3663.638428
808.181641	3656.527100
808.134094	3600.585205
808.086548	3681.370361
808.039001	3726.330322
807.991455	3702.943359
807.943909	3585.216064
807.896301	3529.331299
807.848755	3600.304443
807.801208	3521.672852
807.753662	3657.648682
807.706055	3640.796631
807.658508	3718.205078
807.610901	3802.087646
807.563416	3616.265869
807.515747	3813.837646
807.468201	3848.941895
807.420654	3923.005127
807.373108	4029.513672
807.325439	3963.925049
807.277832	4024.948730
807.230347	4183.314453
807.182739	4221.567871
807.135132	4097.592285
807.087463	3986.632324
807.039917	4067.061523
806.992310	4063.153076
806.944702	3965.221680
806.897156	4149.348145
806.849548	4025.505127
806.801880	4002.161865
806.754272	4114.909668
806.706665	4052.684326
806.659058	4175.103516
806.611450	4057.834229
806.563843	4079.835693
806.516235	4014.418945
806.468567	4094.684082
806.420959	4330.269043
806.373291	4261.606934
806.325684	4364.439453
806.278076	4506.055176
806.230469	4320.964355
806.182800	4362.295410
806.135132	4474.742676
806.087524	4577.455078
806.039856	4599.330566
805.992249	4430.533203
805.944580	4378.110352
805.896973	4500.154297
805.849243	4360.526367
805.801636	4285.533691
805.753967	4326.808105
805.706299	4158.220703
805.658691	4286.655762
805.611023	4373.092285
805.563354	4323.973145
805.515625	4287.775391
805.468018	4238.686035
805.420349	4399.254395
805.372681	4305.016602
805.324951	4452.624512
805.277283	4397.092285
805.229614	4644.554199
805.181885	4669.574219
805.134216	4652.698242
805.086548	4590.726074
805.038879	4731.699219
804.991211	4821.098145
804.943481	4820.308105
804.895752	4842.054199
804.848083	5011.863281
804.800354	4924.145020
804.752686	4974.823730
804.705017	4880.705566
804.657288	4883.122559
804.609619	4882.321777
804.561890	5087.330078
804.514160	4970.747559
804.466431	5066.374023
804.418701	4895.191895
804.371033	4971.517090
804.323303	5096.013672
804.275513	5079.115234
804.227844	5264.582520
804.180115	5096.719238
804.132385	5272.489258
804.084595	5383.991699
804.036865	5578.916992
803.989197	5449.624512
803.941467	5567.460449
803.893738	5694.882812
803.845947	5847.926270
803.798218	5721.880859
803.750488	5858.835449
803.702759	5909.174805
803.654968	5892.176758
803.607178	5939.289062
803.559448	5906.267578
803.511719	6027.057617
803.463928	5907.533691
803.416199	5877.736816
803.368408	5783.896973
803.320679	5911.031250
803.272888	5916.464355
803.225159	5947.504395
803.177307	5917.724121
803.129578	5987.152344
803.081787	6046.959473
803.033997	6266.693359
802.986206	6342.426758
802.938416	6309.407227
802.890686	6669.672363
802.842896	6655.790527
802.795105	6865.654297
802.747253	6896.485352
802.699524	6703.638672
802.651672	7076.321777
802.603882	7055.995117
802.556091	6745.050293
802.508301	6973.850098
802.460510	7451.600098
802.412720	7210.969238
802.364929	7276.808594
802.317078	7310.715820
802.269226	7277.610352
802.221436	7378.496094
802.173645	7756.833984
802.125793	7522.766113
802.078003	7601.242188
802.030151	7804.020996
801.982361	8268.099609
801.934509	8183.882812
801.886719	8752.895508
801.838867	8811.989258
801.791016	8972.992188
801.743164	9054.323242
801.695312	9406.289062
801.647522	9761.322266
801.599609	9896.596680
801.551819	9611.712891
801.503967	10227.473633
801.456055	10311.698242
801.408203	10421.344727
801.360352	10791.762695
801.312500	10484.703125
801.264709	10629.240234
801.216797	10487.617188
801.168945	10654.355469
801.121094	10703.453125
801.073181	10917.761719
801.025391	10912.791992
800.977478	11133.347656
800.929565	11306.193359
800.881714	11237.653320
800.833862	11791.406250
800.785950	11995.800781
800.738037	12028.741211
800.690247	12220.335938
800.642334	12884.609375
800.594421	13361.500977
800.546570	13165.830078
800.498596	13740.826172
800.450745	13741.738281
800.402832	13878.967773
800.354980	13857.668945
800.307068	14045.538086
800.259155	13732.707031
800.211243	13847.668945
800.163330	13794.711914
800.115417	13805.113281
800.067505	13426.028320
800.019653	13458.647461
799.971680	13105.067383
799.923767	13191.532227
799.875854	12872.919922
799.827942	12886.623047
799.779968	12764.295898
799.732117	12844.431641
799.684143	12595.657227
799.636230	12827.561523
799.588257	12825.452148
799.540344	13177.352539
799.492371	12960.287109
799.444458	12594.784180
799.396545	12946.547852
799.348572	13073.925781
799.300598	13125.465820
799.252686	12883.323242
799.204712	13029.591797
799.156738	12841.207031
799.108826	12851.719727
799.060852	12852.761719
799.012878	12724.444336
798.964966	12744.432617
798.916992	12581.480469
798.869019	12614.099609
798.821045	12706.615234
798.773071	12562.663086
798.725098	12488.100586
798.677124	12227.627930
798.629150	12298.087891
798.581116	12283.462891
798.533203	12183.794922
798.485168	11832.209961
798.437256	11883.792969
798.389221	11954.250000
798.341248	11782.300781
798.293274	11497.104492
798.245300	11438.570312
798.197266	11210.156250
798.149292	10925.194336
798.101257	10712.666016
798.053223	10210.892578
798.005310	10070.867188
797.957275	9578.795898
797.909241	9325.766602
797.861206	9217.380859
797.813232	8995.915039
797.765198	8702.264648
797.717224	8622.304688
797.669189	8306.827148
797.621155	8189.277832
797.573120	7952.463867
797.525146	8082.994141
797.477112	7981.230957
797.429016	7810.465332
797.381042	7953.503418
797.333008	7823.578613
797.284912	7612.148438
797.236877	7651.662109
797.188843	7518.714844
797.140808	7282.359863
797.092773	7212.204102
797.044800	7185.945801
796.996704	7009.294922
796.948608	6892.226074
796.900635	6684.357910
796.852539	6592.435059
796.804504	6343.978027
796.756409	6029.856445
796.708374	6031.993652
796.660339	5905.810547
796.612244	5876.674805
796.564209	5941.409668
796.516113	5662.021973
796.468018	5601.663574
796.419983	5666.411133
796.371887	5587.311523
796.323792	5323.795898
796.275757	5522.958008
796.227600	5572.049805
796.179504	5364.909180
796.131470	5407.762207
796.083374	5272.558594
796.035278	5452.825684
795.987183	5227.105469
795.939087	5135.706055
795.891052	5013.121094
795.842896	4862.487793
795.794800	4917.854980
795.746643	4882.725098
795.698547	4813.292480
795.650452	4681.504395
795.602356	4699.443359
795.554260	4661.253906
795.506165	4482.794922
795.458069	4388.549805
795.409912	4518.713379
795.361816	4377.755859
795.313660	4289.804688
795.265564	4532.053223
795.217407	4384.933594
795.169312	4328.162598
795.121216	4355.468262
795.073059	4171.097656
795.024902	4213.981445
794.976746	4119.934570
794.928589	4178.368164
794.880493	4040.808105
794.832336	3934.395264
794.784180	3877.772217
794.736023	3846.041016
794.687866	3764.581543
794.639709	3695.581543
794.591553	3595.527832
794.543396	3523.471191
794.495239	3538.423096
794.447144	3460.187012
794.398926	3192.536377
794.350830	3192.009766
794.302612	3064.196533
794.254456	3116.459717
794.206238	3140.773682
794.158081	3180.594971
794.109924	3065.277344
794.061707	2953.099854
794.013550	2912.293213
793.965393	2983.135010
793.917236	2917.533203
793.869019	3000.750488
793.820862	2907.272217
793.772583	2860.308594
793.724426	2810.261963
793.676270	2701.371582
793.628052	2669.951660
793.579895	2743.836182
793.531677	2641.203125
793.483459	2451.919922
793.435242	2556.757080
793.387085	2503.722900
793.338806	2487.837891
793.290649	2475.052002
793.242371	2558.162598
793.194214	2520.626709
793.145996	2628.440674
793.097778	2587.813477
793.049561	2587.386475
793.001343	2747.678223
792.953064	2741.044189
792.904846	2786.937500
792.856628	2851.351074
792.808411	2764.396240
792.760193	2816.439209
792.711914	2856.114014
792.663696	2979.129639
792.615417	2929.250977
792.567200	2907.164062
792.518982	2897.427002
792.470703	3029.609619
792.422485	2911.893311
792.374207	2899.075684
792.325928	3009.606934
792.277710	3058.439453
792.229492	3141.164307
792.181152	3066.675537
792.132935	3137.045166
792.084656	3253.607422
792.036377	3265.392090
791.988098	3230.972168
791.939819	3470.642578
791.891602	3528.570801
791.843323	3663.442871
791.795044	3742.865967
791.746765	3985.370361
791.698486	4092.406738
791.650208	3965.594482
791.601929	4204.865723
791.553650	4330.265137
791.505371	4378.749023
791.457031	4639.354004
791.408752	4534.073242
791.360474	4388.872070
791.312195	4594.033203
791.263916	4427.362793
791.215576	4475.781738
791.167297	4428.970703
791.118958	4474.302246
791.070679	4369.168945
791.022339	4282.490234
790.974060	4119.104980
790.925720	4142.975098
790.877441	4206.725586
790.829102	4301.133789
790.780823	4413.914551
790.732422	4256.775879
790.684143	4556.572754
790.635803	4755.097656
790.587524	4395.668945
790.539185	3766.655518
790.490845	3508.630859
790.442505	3284.393311
790.394104	3237.900635
790.345825	3194.486084
790.297424	3086.778076
790.249146	2927.055176
790.200745	2822.488037
790.152405	2739.380615
790.104065	2806.253174
790.055725	2830.266846
790.007385	2689.073486
789.958984	2743.686035
789.910706	2559.738281
789.862305	2550.141602
789.813904	2613.921143
789.765564	2803.004883
789.717224	2778.091553
789.668823	2740.963379
789.620483	2670.240479
789.572083	2623.978271
789.523682	2785.415771
789.475342	2824.652588
789.427002	2729.536865
789.378601	2780.980469
789.330200	2856.824219
789.281799	2819.731445
789.233459	2895.543701
789.185059	2882.861816
789.136658	2790.880371
789.088257	2878.857910
789.039856	3049.132812
788.991455	2941.926025
788.943115	3163.952148
788.894714	3129.904541
788.846252	3181.187256
788.797913	3305.571533
788.749451	3341.577637
788.701050	3374.525879
788.652649	3562.763184
788.604248	3507.370605
788.555847	3576.803955
788.507385	3646.214111
788.458984	3554.317871
788.410522	3648.049072
788.362122	3464.920654
788.313660	3300.102051
788.265259	3302.596436
788.216858	3171.305420
788.168396	3134.299561
788.119995	2860.220459
788.071533	2683.481689
788.023071	2512.878662
787.974670	2479.043945
787.926208	2308.531006
787.877747	2235.259521
787.829346	2061.806885
787.780884	2031.104858
787.732422	1882.027466
787.684021	1851.365479
787.635559	1781.264648
787.587097	1784.003540
787.538635	1635.065674
787.490173	1646.926758
787.441711	1667.881470
787.393250	1497.812500
787.344788	1461.186157
787.296326	1376.075928
787.247803	1354.634399
787.199341	1345.319824
787.150879	1281.477417
787.102417	1238.859131
787.053894	1168.998413
787.005432	1026.489014
786.956909	1086.868652
786.908508	1059.445557
786.859985	953.342957
786.811523	944.106995
786.763000	980.256226
786.714478	883.294373
786.666016	952.710938
786.617493	907.193298
786.569031	858.667236
786.520508	852.478943
786.471985	876.517334
786.423523	891.481873
786.375000	864.140808
786.326477	867.018494
786.277954	827.608582
786.229431	754.992065
786.180908	803.178345
786.132446	700.400269
786.083923	724.431824
786.035339	657.916443
785.986816	684.964478
785.938354	666.749084
785.889771	639.490295
785.841248	699.703491
785.792725	717.680176
785.744202	639.172058
785.695679	669.210632
785.647095	663.071716
785.598572	650.907837
785.550049	611.631348
785.501465	635.629517
785.452942	683.715454
785.404358	701.670776
785.355835	743.707825
785.307251	617.144958
785.258728	629.082397
785.210205	737.318665
785.161621	631.882568
785.113037	688.938538
785.064453	649.720642
785.015930	715.777039
784.967346	667.546753
784.918762	682.468262
784.870239	652.295288
784.821594	631.148743
784.773071	676.118530
784.724487	682.015198
784.675903	618.818542
784.627319	669.774841
784.578735	693.687439
784.530151	717.592102
784.481567	753.496704
784.432983	711.350830
784.384399	702.229797
784.335754	756.121887
784.287170	806.996033
784.238586	740.873291
784.190002	797.731079
784.141357	854.569885
784.092773	848.431946
784.044128	854.286011
783.995605	968.030029
783.946960	913.932251
783.898376	853.860413
783.849670	928.606140
783.801086	1003.327026
783.752502	1042.088989
783.703857	1128.742188
783.655212	1158.489746
783.606628	1170.269287
783.558044	1202.992554
783.509338	1160.904419
783.460693	1011.135254
783.412109	1058.823730
783.363464	986.875000
783.314819	1013.621338
783.266174	977.578430
783.217529	1025.240601
783.168884	872.654541
783.120300	785.856140
783.071594	755.850037
783.022949	645.203430
782.974304	606.270935
782.925659	564.365356
782.877014	522.473633
782.828369	471.640625
782.779663	441.716522
782.731018	447.611237
782.682373	402.783142
782.633667	366.919159
782.585022	381.771088
782.536377	369.779266
782.487671	366.736176
782.439026	390.523987
782.390320	423.245697
782.341614	351.652710
782.292969	336.696167
782.244263	360.473114
782.195557	387.220764
782.146912	408.003235
782.098206	396.024841
782.049500	413.821777
782.000854	413.752960
781.952087	410.707977
781.903442	476.103973
781.854736	484.950226
781.806030	508.666840
781.757324	490.737213
781.708618	529.313293
781.659912	558.956970
781.611206	514.273743
781.562500	520.132568
781.513794	612.168457
781.465027	555.613831
781.416382	567.404236
781.367615	439.590820
781.318909	495.942230
781.270203	492.890472
781.221436	501.714630
781.172791	492.726440
781.124023	433.289673
781.075256	489.595184
781.026550	501.380707
780.977844	513.162231
780.929077	471.556152
780.880310	477.408203
780.831604	409.138916
780.782837	471.320709
780.734131	426.785431
780.685364	379.301666
780.636597	411.829315
780.587891	417.685364
780.539062	328.761383
780.490356	346.474579
780.441589	281.278656
780.392822	293.073151
780.344055	331.502289
780.295288	278.178802
780.246521	316.597595
780.197815	260.335968
780.148987	239.587524
780.100281	286.865662
780.051453	248.378372
780.002686	257.206177
779.953918	212.824829
779.905151	248.254272
779.856384	221.618668
779.807556	171.356552
779.758789	206.775177
779.710022	233.321686
779.661194	194.894501
779.612427	171.242386
779.563599	180.069733
779.514832	177.088257
779.466003	182.960709
779.417236	147.524368
779.368408	200.599716
779.319580	165.172241
779.270813	150.399643
779.221985	203.447952
779.173218	168.037689
779.124390	168.009689
779.075562	162.087585
779.026733	153.220901
778.977966	159.087494
778.929138	123.714088
778.880310	206.155777
778.831482	203.176804
778.782593	141.316833
778.733826	141.293259
778.684937	153.042191
778.636108	170.672440
778.587341	138.280457
778.538513	138.257401
778.489624	164.704758
778.440796	191.143280
778.391968	182.290878
778.343079	152.863632
778.294250	146.959747
778.245422	114.609482
778.196594	152.787155
778.147705	123.384430
778.098816	108.677673
778.049988	120.406525
778.001099	146.812729
777.952271	129.173660
777.903381	158.504852
777.854553	105.652275
777.805664	137.911896
777.756836	149.624115
777.707886	96.799454
777.659058	120.245918
777.610168	178.872604
777.561279	140.728729
777.512451	105.528938
777.463562	114.303940
777.414673	105.493721
777.365784	123.055466
777.316895	102.529106
777.268005	120.085480
777.219116	152.278107
777.170227	114.189522
777.121277	122.952805
777.072388	125.859238
777.023560	125.838226
776.974670	105.335350
776.925720	140.423691
776.876831	149.175262
776.827881	128.678741
776.778992	114.037109
776.730103	93.553284
776.681152	113.999031
776.632263	125.670250
776.583313	149.025879
776.534424	108.098755
776.485535	108.080704
776.436584	128.506943
776.387695	93.443985
776.338684	116.785469
776.289795	125.523415
776.240906	119.665123
776.191956	128.399658
776.143005	99.201347
776.094055	157.528763
776.045105	125.418610
775.996216	102.067863
775.947266	151.618347
775.898315	69.966011
775.849365	102.016716
775.800415	122.399605
775.751465	104.896416
775.702515	87.399071
775.653564	96.122917
775.604553	113.580826
775.555664	78.619736
775.506653	104.808800
775.457703	87.326073
775.408752	98.953003
775.359802	125.125534
775.310852	72.735245
775.261841	84.358780
775.212891	101.795303
775.163879	78.514679
775.114929	78.501549
775.065918	90.116341
775.016968	116.259712
774.968018	139.488327
774.918945	127.842926
774.869995	124.916519
774.820984	124.895630
774.772034	136.490997
774.723022	130.661026
774.674011	113.220619
774.625061	150.935577
774.576050	139.301849
774.527039	92.852371
774.478027	101.540291
774.429016	113.125977
774.380005	133.408325
774.330994	75.392090
774.281982	98.573166
774.232971	110.151581
774.183960	113.031395
774.134949	101.421463
774.085876	124.582664
774.036926	107.181099
773.987915	130.333588
773.938904	124.520142
773.889832	112.917976
773.840820	115.793930
773.791809	121.563286
773.742737	101.285782
773.693665	83.908463
773.644653	86.787331
773.595581	101.234947
773.546570	98.326057
773.497559	92.526688
773.448486	89.620224
773.399475	86.714729
773.350403	92.480232
773.301331	66.459038
773.252319	75.115036
773.203247	101.099464
773.154236	98.194466
773.105103	112.615974
773.056030	106.822906
773.007019	89.485291
772.957947	60.608917
772.908875	138.511475
772.859802	92.325516
772.810730	98.079437
772.761658	72.105156
772.712585	74.976799
772.663513	83.613968
772.614441	98.013748
772.565369	57.645493
772.516296	86.453751
772.467163	86.439270
772.418091	69.139832
772.368958	95.051346
772.319946	95.035423
772.270813	48.949444
772.221741	63.335724
772.172668	48.933041
772.123535	83.460030
772.074402	94.955841
772.025330	57.539352
771.976257	92.047539
771.927124	71.900093
771.877991	86.265648
771.828918	97.751350
771.779785	94.860413
771.730652	89.096367
771.681580	97.702217
771.632446	132.163193
771.583313	74.688416
771.534180	66.059448
771.485046	77.535049
771.435974	94.749176
771.386780	97.603996
771.337708	80.366287
771.288513	34.436920
771.239380	54.515984
771.190247	54.506844
771.141113	80.312408
771.091980	77.431122
771.042908	71.683456
770.993713	103.206871
770.944519	51.594784
770.895447	88.842781
770.846313	54.442894
770.797119	63.028568
770.747925	108.849274
770.698792	60.143456
770.649658	71.587341
770.600525	97.342453
770.551331	51.525597
770.502197	57.241058
770.453003	71.539322
770.403870	97.277153
770.354675	97.260834
770.305481	137.286377
770.256287	54.333405
770.207153	74.338501
770.157959	71.467339
770.108765	74.313560
770.059631	74.301086
770.010437	100.003906
769.961243	91.416801
769.912048	68.551094
769.862854	85.674484
769.813660	74.238762
769.764465	82.790871
769.715271	45.670055
769.666077	79.909180
769.616882	57.068405
769.567688	79.882355
769.518494	74.164024
769.469238	74.151573
769.420044	74.139122
769.370850	96.934883
769.321594	91.217514
769.272461	125.403023
769.223206	56.991802
769.173950	71.227791
769.124817	105.399429
769.075562	34.177856
769.026306	88.277969
768.977112	76.874352
768.927856	105.328644
768.878662	88.233498
768.829407	34.149166
768.780212	62.596291
768.730957	68.275391
768.681763	93.862892
768.632446	68.252457
768.583252	62.554237
768.533997	51.172142
768.484741	54.005966
768.435486	62.522717
768.386230	73.878067
768.337036	71.024666
768.287781	53.969677
768.238525	90.881020
768.189209	70.988869
768.140015	96.528633
768.090759	82.319412
768.041443	65.276840
767.992188	65.265869
767.942932	59.580555
767.893677	65.243927
767.844421	39.707020
767.795105	107.758080
767.745850	39.693672
767.696594	93.547920
767.647278	76.526344
767.598022	87.848808
767.548767	62.333832
767.499451	8.498639
767.450134	67.977676
767.400879	36.815052
767.351562	84.943527
767.302307	56.619495
767.252991	87.745461
767.203735	2.830023
767.154419	28.295467
767.105103	67.897697
767.055786	70.714874
767.006470	110.296646
766.957214	70.691086
766.907837	87.642204
766.858582	70.667305
766.809265	70.655418
766.759949	107.378166
766.710632	42.378986
766.661316	48.021439
766.612000	79.080826
766.562683	76.243683
766.513367	95.994408
766.464050	79.040916
766.414673	81.850029
766.365356	87.480133
766.316040	62.072227
766.266724	64.882767
766.217346	78.974426
766.168030	84.601212
766.118713	2.819566
766.069336	31.010004
766.020020	95.832970
765.970703	56.362843
765.921326	61.988689
765.871948	53.526676
765.822632	59.151100
765.773254	101.384819
765.723938	59.131184
765.674561	56.305931
765.625244	78.815033
765.575867	33.772182
765.526489	75.974617
765.477112	67.521622
765.427795	56.258541
765.378418	78.748688
765.329041	75.923447
765.279663	56.230118
765.230286	81.519943
765.180908	50.590061
765.131531	95.542908
765.082153	50.573017
765.032715	70.228470
764.983337	73.025307
764.934021	58.972038
764.884644	75.808418
764.835205	64.566658
764.785828	67.362556
764.736450	42.094501
764.687073	47.699066
764.637634	70.133865
764.588257	53.292755
764.538818	81.327866
764.489441	50.470856
764.440063	58.872742
764.390625	86.892731
764.341187	103.693199
764.291809	53.238884
764.242432	106.459816
764.192932	67.226448
764.143555	70.015739
764.094116	72.804092
764.044739	89.589935
763.995300	47.586628
763.945862	86.760986
763.896484	103.535973
763.847046	78.338333
763.797607	92.311752
763.748169	53.140228
763.698730	50.334885
763.649292	47.530487
763.599854	67.090546
763.550415	36.334583
763.500977	78.245903
763.451538	81.026726
763.402100	44.696861
763.352661	55.861652
763.303162	89.363564
763.253723	47.466385
763.204285	80.958412
763.154846	33.494381
763.105408	86.512550
763.055908	94.868721
763.006470	80.903786
762.957031	100.415337
762.907532	66.932259
762.858032	44.613979
762.808594	44.606449
762.759094	52.961220
762.709656	64.100128
762.660156	61.302818
762.610718	69.650536
762.561218	55.711021
762.511780	58.486698
762.462280	52.907604
762.412781	97.444923
762.363342	64.024429
762.313843	55.664013
762.264343	72.350998
762.214783	55.645222
762.165344	58.417614
762.115845	61.189072
762.066345	47.274483
762.016846	38.925350
761.967346	88.957207
761.917847	75.044968
761.868286	36.126659
761.818848	58.348595
761.769287	77.784988
761.719788	80.549416
761.670288	116.638069
761.620789	30.542904
761.571228	86.060921
761.521729	66.616554
761.472229	77.706177
761.422668	86.017311
761.373169	66.582794
761.323608	66.571541
761.274109	77.653679
761.224609	61.003292
761.175049	63.765392
761.125488	55.438797
761.075989	60.972374
761.026489	52.649059
760.976929	83.116043
760.927307	60.941463
760.877808	55.391968
760.828308	71.997383
760.778687	58.141903
760.729187	63.668465
760.679626	63.657700
760.630066	19.370808
760.580566	63.636177
760.530945	49.793808
760.481384	91.273209
760.431824	99.553940
760.382263	88.477425
760.332703	58.053493
760.283142	30.403830
760.233521	69.087929
760.184021	116.048096
760.134460	74.589729
760.084839	49.718075
760.035278	69.041199
759.985657	55.223621
759.936096	91.103561
759.886536	52.444691
759.836975	19.318460
759.787354	74.501457
759.737732	66.212311
759.688232	63.442730
759.638611	68.947823
759.588989	60.663815
759.539368	46.868652
759.489807	82.695396
759.440186	52.364887
759.390564	38.578125
759.341003	88.163643
759.291443	55.092953
759.241760	90.887985
759.192200	74.350311
759.142578	55.064983
759.092957	77.077927
759.043335	66.055611
758.993713	90.811089
758.944092	44.022167
758.894470	52.267471
758.844849	71.511803
758.795227	74.249680
758.745667	101.732338
758.695984	82.471710
758.646362	79.709152
758.596741	41.221889
758.547058	52.205555
758.497437	85.163055
758.447815	41.200951
758.398193	71.402885
758.348511	82.373993
758.298889	85.105377
758.249268	90.580696
758.199646	54.888096
758.149963	90.550018
758.100281	68.586876
758.050659	79.547295
758.000977	21.940365
757.951355	76.778267
757.901672	24.674545
757.851990	82.234550
757.802368	63.035805
757.752686	43.843563
757.703003	82.192757
757.653320	35.610825
757.603699	57.515427
757.554016	62.982410
757.504333	27.379015
757.454651	49.273876
757.404968	46.528549
757.355286	98.514343
757.305603	101.233688
757.255920	73.860710
757.206238	98.464249
757.156616	43.754471
757.106873	84.759911
757.057190	49.207088
757.007446	65.598328
756.957764	76.518402
756.908081	92.899452
756.858398	32.782482
756.808716	65.553841
756.758972	43.695152
756.709290	43.687740
756.659607	65.520493
756.609924	43.672920
756.560120	73.685555
756.510437	70.944420
756.460693	76.388725
756.411072	57.281826
756.361328	38.181404
756.311584	43.628487
756.261902	73.610580
756.212097	27.258553
756.162415	89.937965
756.112671	65.398331
756.062927	89.907440
756.013184	57.204117
755.963501	68.088585
755.913757	62.630867
755.864014	81.678566
755.814270	97.997650
755.764587	48.990505
755.714844	81.636986
755.665100	51.694649
755.615356	40.804634
755.565552	65.276337
755.515808	59.826481
755.466064	62.535248
755.416321	65.243095
755.366577	27.180006
755.316833	51.633244
755.267029	73.361099
755.217285	70.632027
755.167542	59.755409
755.117737	51.598179
755.067993	97.748367
755.018188	89.587456
754.968445	48.857582
754.918701	35.280041
754.868896	54.267765
754.819092	59.684399
754.769348	43.399464
754.719543	51.528107
754.669739	73.211716
754.619995	73.199272
754.570190	75.897461
754.520386	62.333752
754.470642	75.871674
754.420837	51.475601
754.371033	75.845886
754.321228	62.291393
754.271484	75.820114
754.221619	78.514626
754.171875	75.794342
754.122070	62.249054
754.072205	56.826435
754.022400	70.344574
753.972595	48.691814
753.922852	51.388176
753.872986	56.787804
753.823181	100.037689
753.773376	62.175018
753.723572	62.164448
753.673706	48.642166
753.623901	81.056488
753.574097	64.834167
753.524292	83.729889
753.474426	67.512619
753.424561	70.201187
753.374756	29.695450
753.324951	72.876434
753.275085	67.466705
753.225281	67.455231
753.175415	62.048252
753.125610	56.643116
753.075745	53.936649
753.025879	62.016594
752.976074	59.310127
752.926208	70.081863
752.876343	45.814957
752.826477	51.196239
752.776672	45.799370
752.726807	94.276772
752.676941	105.033386
752.627075	94.244690
752.577209	83.459656
752.527344	56.527565
752.477539	26.913307
752.427673	72.653557
752.377808	37.665806
752.327881	59.179047
752.278015	77.995461
752.228149	53.780815
752.178284	75.280327
752.128357	45.698132
752.078491	48.378017
752.028625	85.990723
751.978760	51.048298
751.928833	72.529961
751.878967	42.973400
751.829102	59.078362
751.779175	64.438148
751.729309	53.689308
751.679382	50.996159
751.629456	88.557190
751.579590	85.859009
751.529663	69.748558
751.479797	64.372322
751.429871	56.316185
751.379944	32.175194
751.330078	72.381851
751.280212	69.689171
751.230225	40.198441
751.180298	2.679439
751.130371	56.258636
751.080505	85.712837
751.030579	85.698235
750.980652	53.552269
750.930725	53.543140
750.880859	56.210716
750.830872	90.992317
750.780945	72.246284
750.731018	50.831314
750.681091	42.798019
750.631165	32.093044
750.581177	64.175140
750.531311	82.878761
750.481384	58.807159
750.431396	56.124535
750.381409	66.803528
750.331482	77.478882
750.281616	56.095829
750.231628	58.757038
750.181641	56.076698
750.131714	125.483589
750.081787	82.751656
750.031799	82.737541
749.981812	82.723427
749.931885	50.692810
749.881958	104.035912
749.831970	53.342648
749.781982	96.000381
749.732056	63.989338
749.682068	45.318047
749.632080	85.290009
749.582092	50.632301
749.532104	42.630451
749.482178	63.934765
749.432190	74.577835
749.382202	103.858536
749.332214	50.589115
749.282227	34.607697
749.232239	29.278439
749.182251	74.514214
749.132263	31.929213
749.082275	82.469719
749.032288	61.176765
748.982239	66.485130
748.932312	103.699097
748.882263	63.803936
748.832275	29.238478
748.782288	74.412506
748.732239	95.656891
748.682251	34.536865
748.632263	37.187199
748.582214	50.459721
748.532227	58.417068
748.482178	84.955765
748.432190	29.198557
748.382141	55.733181
748.332153	66.337692
748.282104	34.489708
748.232117	61.009827
748.182068	82.216591
748.132080	34.472034
748.082031	21.209934
748.031982	74.222092
747.981934	53.006721
747.931885	92.745911
747.881836	82.132339
747.831848	58.277508
747.781799	52.970497
747.731812	50.313374
747.681702	95.314308
747.631653	37.060341
747.581604	95.281731
747.531555	47.632721
747.481567	50.270390
747.431458	79.360733
747.381409	52.898109
747.331360	66.111336
747.281311	7.932003
747.231201	44.940334
747.181152	76.649818
747.131104	26.426453
747.081055	71.339218
747.030945	73.968765
746.980957	97.727722
746.930847	73.943466
746.880798	68.650047
746.830688	79.198044
746.780640	87.102951
746.730530	87.088051
746.680420	21.108643
746.630310	92.334518
746.580261	44.840523
746.530212	63.293438
746.480103	42.188404
746.429993	102.816643
746.379883	52.717461
746.329834	55.343864
746.279724	89.589020
746.229614	50.055885
746.179504	57.949528
746.129456	68.474083
746.079346	71.095535
746.029236	73.716080
745.979126	47.380798
745.929016	55.268139
745.878906	68.415504
745.828796	60.511047
745.778687	68.392082
745.728577	71.010391
745.678406	31.554770
745.628296	76.244301
745.578186	39.429955
745.528076	76.218193
745.477966	91.971725
745.427795	55.173588
745.377686	65.671593
745.327576	68.286758
745.277405	70.901031
745.227295	84.016457
745.177124	63.001549
745.127014	65.615372
745.076904	55.107471
745.026733	47.226887
744.976562	76.074722
744.926453	60.324791
744.876282	47.202618
744.826111	47.194530
744.775940	73.401131
744.725830	62.904476
744.675659	86.478836
744.625488	86.464012
744.575378	78.590179
744.525208	47.146027
744.475037	115.226089
744.424866	65.458153
744.374695	44.503914
744.324524	70.670570
744.274353	52.339596
744.224182	60.180218
744.174011	39.241238
744.123840	49.697048
744.073669	81.070755
744.023499	112.433701
743.973267	91.500114
743.923157	31.366089
743.872925	81.015167
743.822754	75.775383
743.772583	101.887352
743.722351	83.585541
743.672180	36.562401
743.622009	60.056503
743.571777	20.885635
743.521606	46.984619
743.471375	107.002159
743.421204	75.671471
743.370972	54.787182
743.320801	44.343922
743.270569	49.552349
743.220398	54.758987
743.170166	46.928223
743.119995	70.380257
743.069702	80.793091
743.019531	65.144539
742.969299	93.792038
742.919067	85.961281
742.868835	65.111000
742.818604	72.911804
742.768433	72.899292
742.718201	78.092979
742.667969	44.245090
742.617737	65.055138
742.567505	70.247490
742.517273	75.438057
742.467041	83.227699
742.416809	59.809635
742.366577	67.599281
742.316345	72.786728
742.266052	64.976990
742.215820	64.965836
742.165588	51.963741
742.115356	75.334480
742.065063	83.113426
742.014832	57.130669
741.964600	124.627319
741.914307	90.858475
741.864075	59.696743
741.813782	106.397652
741.763489	108.973991
741.713257	44.100941
741.662964	62.249454
741.612732	98.544701
741.562439	44.078213
741.512207	80.364105
741.461914	82.942238
741.411682	44.055492
741.361389	67.367409
741.311096	64.765221
741.260803	77.704910
741.210510	46.614929
741.160278	54.374737
741.109985	69.898361
741.059692	38.825745
741.009399	69.874329
740.959106	59.512344
740.908813	54.328014
740.858521	59.491879
740.808228	82.757080
740.757935	43.957138
740.707642	93.069695
740.657349	62.035793
740.606995	80.115791
740.556702	80.102013
740.506409	103.339653
740.456116	82.657501
740.405762	69.730270
740.355469	36.150219
740.305176	103.268570
740.254822	67.113022
740.204529	64.520653
740.154175	79.991844
740.103882	100.617584
740.053589	126.395210
740.003235	59.318157
739.952942	41.257702
739.902588	64.454071
739.852295	54.132099
739.801941	64.431885
739.751587	54.113468
739.701233	51.527767
739.650879	43.791061
739.600586	72.114037
739.550232	79.826797
739.499878	66.939987
739.449524	95.244347
739.399170	48.900837
739.348816	33.452709
739.298523	74.612419
739.248108	66.882378
739.197815	77.158684
739.147461	56.573292
739.097046	69.418900
739.046692	74.548203
738.996399	89.956474
738.945984	51.394844
738.895630	95.064087
738.845276	105.323135
738.794861	69.347191
738.744507	53.927414
738.694153	43.648003
738.643738	59.043007
738.593384	53.899544
738.543030	97.515709
738.492615	102.630424
738.442261	84.655510
738.391846	71.816544
738.341492	56.417557
738.291077	71.791786
738.240662	46.143909
738.190369	51.262177
738.139954	87.130676
738.089539	61.493404
738.039124	71.729942
737.988770	112.699043
737.938354	87.070610
737.887939	79.374222
737.837524	104.960716
737.787109	35.834064
737.736755	69.096634
737.686340	79.319496
737.635925	28.140774
737.585510	33.251545
737.535095	61.376877
737.484680	63.923222
737.434265	104.816002
737.383850	63.901173
737.333374	107.335449
737.282959	71.544624
737.232544	68.977562
737.182129	104.725632
737.131714	63.846077
737.081299	40.854439
737.030823	66.377007
736.980408	76.575638
736.929993	66.354103
736.879517	94.410698
736.829102	61.228806
736.778625	86.725838
736.728210	68.858635
736.677795	56.097351
736.627319	56.087666
736.576904	81.567978
736.526428	61.165424
736.475952	63.702984
736.425537	50.953590
736.375061	48.397552
736.324585	104.418793
736.274170	86.576248
736.223694	76.377617
736.173218	78.909904
736.122803	63.626034
736.072266	68.704247
736.021851	66.148224
735.971375	68.680519
735.920898	104.274628
735.870361	71.199646
735.819946	58.475319
735.769470	71.175049
735.718994	99.119553
735.668518	71.150459
735.618042	99.085304
735.567566	78.746506
735.517029	99.051071
735.466553	63.483303
735.416077	71.089012
735.365540	73.615189
735.315063	104.058655
735.264587	53.289124
735.214111	88.799858
735.163635	116.688217
735.113098	63.406548
735.062622	76.074707
735.012146	86.203094
734.961609	101.397873
734.911133	78.569771
734.860596	91.226540
734.810059	91.210762
734.759521	65.863052
734.709045	53.187881
734.658508	75.969551
734.608032	73.424530
734.557495	58.223179
734.506958	124.019234
734.456421	83.508713
734.405884	78.434013
734.355408	93.598595
734.304871	96.111664
734.254333	113.796753
734.203796	53.095966
734.153259	91.005905
734.102722	101.100182
734.052185	80.866150
734.001648	96.011940
733.951111	95.995331
733.900574	83.349937
733.850037	50.506374
733.799500	98.470383
733.748962	55.537785
733.698364	85.816269
733.647827	63.089275
733.597229	78.217155
733.546692	83.249016
733.496155	108.457214
733.445618	103.394791
733.395020	88.248566
733.344482	90.754234
733.293884	68.053894
733.243347	83.162582
733.192810	78.108894
733.142212	83.133781
733.091614	118.382156
733.041077	83.104996
732.990479	100.715881
732.939880	110.768280
732.889343	105.715042
732.838745	60.398132
732.788147	105.678429
732.737610	95.597252
732.687012	70.427879
732.636414	80.475060
732.585815	80.461121
732.535217	67.877304
732.484680	87.973854
732.434021	65.340683
732.383423	92.968704
732.332825	103.001526
732.282227	85.401093
732.231628	110.499908
732.181030	70.305939
732.130432	77.825226
732.079834	90.362015
732.029175	40.153934
731.978577	62.729649
731.927979	92.823784
731.877380	67.724533
731.826782	90.283722
731.776184	80.238281
731.725525	107.801498
731.674866	87.730186
731.624268	67.665840
731.573608	102.734009
731.523071	67.642372
731.472412	97.688705
731.421753	77.636528
731.371155	100.158791
731.320496	90.127274
731.269897	90.111641
731.219238	85.090675
731.168579	95.084846
731.117981	85.061157
731.067322	112.561409
731.016663	80.029785
730.966003	132.526321
730.915344	75.001884
730.864685	62.490726
730.814087	92.470222
730.763428	114.943031
730.712769	87.441475
730.662109	142.379974
730.611450	92.406044
730.560791	72.413788
730.510132	62.414845
730.459473	79.877129
730.408813	87.350449
730.358154	77.354103
730.307434	109.773865
730.256775	109.754799
730.206116	107.241753
730.155457	54.858345
730.104797	64.821335
730.054077	72.288162
730.003418	92.213707
729.952698	134.558792
729.902039	54.810726
729.851379	97.147591
729.800659	92.149658
729.750000	126.995026
729.699280	117.014305
729.648621	37.338501
729.597900	99.552040
729.547241	84.604530
729.496521	97.029510
729.445862	119.400192
729.395142	77.099220
729.344421	119.358696
729.293701	82.044846
729.242981	106.888336
729.192322	126.752502
729.141541	101.881363
729.090820	69.565422
729.040161	94.393806
728.989441	84.442932
728.938721	96.844170
728.888062	104.275589
728.837280	86.881218
728.786560	116.648781
728.735840	136.480164
728.685120	71.949753
728.634338	81.859619
728.583679	96.726364
728.532898	101.669006
728.482178	84.296219
728.431458	94.197029
728.380737	116.486595
728.330017	109.032310
728.279236	76.804855
728.228516	108.994377
728.177795	101.545273
728.127014	106.480171
728.076233	99.034088
728.025513	126.246498
727.974731	101.474625
727.924011	118.778885
727.873291	106.387566
727.822510	71.737267
727.771790	111.297081
727.721008	74.185135
727.670288	91.479080
727.619507	96.407112
727.568726	51.902485
727.517944	121.084717
727.467163	86.474022
727.416382	106.221024
727.365601	101.262878
727.314880	69.143097
727.264099	74.068985
727.213318	83.930237
727.162537	111.064789
727.111755	64.159592
727.060974	88.820885
727.010193	106.073135
726.959351	98.655502
726.908630	130.695770
726.857849	98.621132
726.807007	56.697273
726.756226	61.616737
726.705444	98.569603
726.654663	83.769562
726.603882	140.412750
726.553040	100.981041
726.502258	123.126152
726.451416	108.332138
726.400635	78.773277
726.349854	83.682022
726.299011	86.128242
726.248230	115.637772
726.197388	110.697716
726.146606	78.704651
726.095764	110.659126
726.044922	83.594543
725.994141	76.205269
725.943359	122.890289
725.892517	93.380341
725.841675	41.768131
725.790833	117.912979
725.739990	100.699776
725.689209	81.036903
725.638367	44.194241
725.587524	110.466331
725.536682	85.903275
725.485840	132.513367
725.434998	93.233879
725.384216	51.514996
725.333313	85.843353
725.282532	127.516441
725.231689	56.391663
725.180847	78.444275
725.130005	73.528679
725.079102	61.263206
725.028259	90.653725
724.977417	58.792156
724.926575	102.868317
724.875671	80.811005
724.824829	93.038849
724.773926	90.574646
724.723145	73.426086
724.672241	90.543030
724.621399	97.867271
724.570496	110.081459
724.519653	53.808208
724.468811	95.370621
724.417908	66.014290
724.367004	63.558216
724.316162	61.102997
724.265259	117.297264
724.214417	65.968193
724.163513	51.299633
724.112671	97.696518
724.061768	107.447403
724.010864	46.389637
723.960022	78.116272
723.909058	75.661919
723.858215	73.208420
723.807312	56.116650
723.756409	100.016548
723.705505	82.926064
723.654602	73.157272
723.603699	63.391888
723.552795	70.693977
723.501892	92.617302
723.451050	87.727371
723.400085	95.021378
723.349182	56.028454
723.298279	60.889851
723.247375	34.092354
723.196411	90.085472
723.145508	68.160873
723.094604	77.884521
723.043701	60.836647
722.992798	80.290337
722.941833	63.247990
722.890930	77.830070
722.839966	70.521164
722.789062	77.802849
722.738159	92.374725
722.687195	72.914658
722.636230	53.461399
722.585388	70.459518
722.534424	63.159554
722.483459	75.292450
722.432556	101.991280
722.381592	53.414658
722.330688	87.390511
722.279724	38.833431
722.228760	50.959961
722.177795	50.951042
722.126831	67.922836
722.075867	48.507820
722.024963	75.173965
721.973999	50.915386
721.923035	65.451180
721.872070	65.439728
721.821106	113.893661
721.770142	65.416817
721.719177	60.560524
721.668213	77.503899
721.617249	79.911903
721.566284	65.371017
721.515320	87.146103
721.464294	48.406021
721.413330	70.176445
721.362366	111.294861
721.311401	58.056717
721.260437	74.976791
721.209473	50.781834
721.158447	94.292603
721.107483	62.850723
721.056458	58.005890
721.005493	70.078171
720.954468	50.737373
720.903564	60.391052
720.852539	84.532661
720.801514	55.540298
720.750549	72.431175
720.699524	72.418480
720.648560	65.165215
720.597534	60.327587
720.546509	41.015568
720.495544	67.543213
720.444519	48.236698
720.393555	57.873890
720.342529	62.685722
720.291504	74.727570
720.240479	33.742020
720.189453	36.145824
720.138428	115.646355
720.087402	60.221916
720.036438	91.521263
719.985352	62.608829
719.934326	62.597851
719.883362	62.586872
719.832275	64.982658
719.781250	57.752235
719.730225	60.148026
719.679199	26.460489
719.628174	40.886311
719.577148	33.665173
719.526123	79.339699
719.475037	67.306725
719.424011	62.488132
719.372986	60.074200
719.321899	45.648380
719.270874	76.867989
719.219788	60.042580
719.168823	64.834610
719.117737	86.430969
719.066711	50.409218
719.015625	52.800385
718.964539	57.590309
718.913513	64.777725
718.862427	55.171341
718.811401	62.356651
718.760315	79.131088
718.709290	67.129738
718.658142	64.720879
718.607117	45.536327
718.556030	38.339645
718.505005	59.895180
718.453918	57.489273
718.402771	57.479176
718.351746	64.652718
718.300659	81.400230
718.249573	59.842598
718.198486	55.045517
718.147400	21.535767
718.096313	100.482590
718.045227	62.192577
717.994141	74.139664
717.943054	78.908997
717.891968	62.159801
717.840881	52.587513
717.789795	64.527878
717.738708	52.569031
717.687561	54.948872
717.636475	62.105198
717.585388	52.541313
717.534302	52.532078
717.483154	50.135441
717.432007	33.417751
717.380920	33.411877
717.329834	66.812004
717.278687	19.085789
717.227600	71.559120
717.176453	45.312805
717.125366	54.842701
717.074219	28.608551
717.023132	54.823410
716.971985	71.496223
716.920837	23.827881
716.869751	45.265011
716.818604	69.076546
716.767517	50.012150
716.716370	50.003349
716.665222	30.949009
716.614136	49.985756
716.562988	42.837395
716.511841	38.070984
716.460693	59.475449
716.409485	54.707783
716.358398	78.479958
716.307251	61.821812
716.256042	61.810932
716.204895	40.407726
716.153809	49.906639
716.102661	52.273945
716.051453	47.513401
716.000366	66.507050
715.949158	61.745674
715.898010	85.478958
715.846863	30.861967
715.795715	78.328117
715.744507	59.329037
715.693359	40.336639
715.642151	35.584885
715.591003	40.322433
715.539856	71.144699
715.488647	47.421448
715.437500	14.223927
715.386353	18.961897
715.335144	54.505848
715.283936	68.712654
715.232788	68.700554
715.181580	45.002773
715.130432	49.731144
715.079285	42.619183
715.028015	68.652138
714.976868	40.237267
714.925659	44.963135
714.874451	54.419468
714.823303	78.066345
714.772095	33.113216
714.720886	47.296257
714.669678	70.931877
714.618469	42.551624
714.567261	54.361935
714.516052	35.447182
714.464905	30.715475
714.413635	61.420120
714.362427	44.876019
714.311218	42.506626
714.260010	44.860191
714.208801	28.327755
714.157593	61.365978
714.106384	66.074783
714.055176	33.031563
714.003906	47.179623
713.952698	58.964123
713.901489	51.879276
713.850281	66.016518
713.799011	87.220726
713.747803	44.781116
713.696594	68.338066
713.645325	77.750282
713.594055	49.468719
713.542847	80.078079
713.491577	68.289833
713.440369	80.049812
713.389160	35.309860
713.337891	65.900101
713.286621	61.182152
713.235413	47.054886
713.184143	37.637260
713.132874	54.094009
713.081665	70.544945
713.030396	79.936821
712.979126	54.065361
712.927917	25.852779
712.876648	21.148539
712.825378	51.687298
712.774109	61.074200
712.722778	44.623260
712.671570	42.267200
712.620300	72.780655
712.569031	61.031055
712.517761	39.897873
712.466492	51.623417
712.415222	70.383133
712.363953	23.456898
712.312622	44.560230
712.261353	65.656105
712.210083	63.300053
712.158813	42.192577
712.107544	60.934063
712.056213	65.609703
712.004944	58.569736
711.953674	84.325508
711.902344	88.994522
711.851074	53.855583
711.799805	32.775864
711.748474	46.814384
711.697144	32.764275
711.645874	58.497288
711.594604	21.055300
711.543274	63.154728
711.492004	51.450306
711.440674	25.720604
711.389404	60.783401
711.338074	70.122292
711.286743	77.120872
711.235413	42.058487
711.184082	51.395725
711.132812	77.079948
711.081482	65.389595
711.030212	25.684225
710.978821	49.024845
710.927490	63.020790
710.876221	65.343323
710.824829	41.998989
710.773560	25.661507
710.722229	67.641090
710.670898	34.980579
710.619568	53.627392
710.568237	67.605179
710.516907	69.924011
710.465515	46.607754
710.414185	60.579350
710.362854	46.591251
710.311523	46.583000
710.260193	27.944851
710.208862	39.581528
710.157471	74.493210
710.106140	62.842514
710.054810	37.233414
710.003418	46.533524
709.952087	58.156601
709.900757	44.191185
709.849365	72.088638
709.797974	46.500557
709.746643	62.764629
709.695251	69.726120
709.643921	34.856884
709.592529	62.731274
709.541199	67.366096
709.489807	92.902283
709.438477	53.409348
709.387024	67.330284
709.335693	39.462482
709.284302	55.701862
709.232910	78.896980
709.181519	60.322292
709.130188	57.991920
709.078796	44.066048
709.027405	64.927925
708.976013	62.597965
708.924622	55.632771
708.873230	76.481491
708.821838	55.613041
708.770447	41.702385
708.719116	69.491646
708.667664	76.427254
708.616272	53.258030
708.564880	106.497162
708.513489	25.462196
708.462036	74.058701
708.410706	64.789864
708.359253	60.151344
708.307861	18.504822
708.256470	34.690384
708.205017	41.621075
708.153625	46.237431
708.102234	39.294842
708.050781	50.843124
707.999329	53.144741
707.947937	39.273922
707.896545	73.914261
707.845093	34.641159
707.793701	69.270020
707.742249	60.023357
707.690857	36.930893
707.639404	60.002045
707.587952	25.380974
707.536499	39.218174
707.485107	41.517754
707.433655	29.979719
707.382202	48.420174
707.330750	46.106262
707.279297	69.147110
707.227905	46.089882
707.176453	78.338882
707.125061	57.591888
707.073547	46.065323
707.022095	52.965710
706.970642	36.839165
706.919250	39.134659
706.867737	34.524445
706.816345	57.530518
706.764832	66.723541
706.713379	55.209667
706.661926	71.299812
706.610474	68.987549
706.559021	39.085999
706.507507	62.066727
706.456055	45.967178
706.404602	71.236458
706.353149	55.141003
706.301636	41.348400
706.250183	64.308296
706.198730	52.815277
706.147217	105.611771
706.095764	59.682995
706.044250	68.852745
705.992798	29.830883
705.941345	18.354200
705.889832	45.877338
705.838379	41.282261
705.786804	59.619324
705.735352	80.242508
705.683838	55.013641
705.632385	80.213951
705.580872	38.954132
705.529419	54.984280
705.477844	50.393288
705.426331	41.223534
705.374817	38.926411
705.323364	64.102676
705.271851	36.623581
705.220337	43.482761
705.168823	77.797401
705.117310	66.344795
705.065796	54.896263
705.014282	50.312614
704.962830	75.455482
704.911255	59.439190
704.859741	70.857185
704.808228	41.135555
704.756714	54.837639
704.705200	34.267418
704.653625	54.818108
704.602173	36.538895
704.550598	45.665482
704.499084	45.657349
704.447571	-4.564921
704.395996	43.359028
704.344482	38.788006
704.292969	77.562195
704.241455	27.370014
704.189880	57.010700
704.138306	43.320412
704.086792	52.431152
704.035278	31.908926
703.983704	50.133663
703.932129	59.238312
703.880615	41.003830
703.829041	72.882698
703.777527	61.483818
703.725952	40.981903
703.674377	52.356430
703.622803	45.519211
703.571289	36.408875
703.519714	77.355064
703.468140	52.319096
703.416565	70.504463
703.364990	29.561115
703.313416	54.564632
703.261902	90.924835
703.210327	24.999868
703.158752	31.812340
703.107178	49.981899
703.055542	45.429985
703.004028	54.506256
702.952393	77.203415
702.900818	59.027374
702.849243	36.318054
702.797668	54.467361
702.746094	49.919506
702.694519	72.597229
702.642883	68.047752
702.591309	56.696339
702.539734	52.151321
702.488098	63.477234
702.436584	18.133114
702.384949	33.993519
702.333374	56.645752
702.281738	40.777657
702.230164	79.275734
702.178528	90.584656
702.126892	47.548454
702.075317	76.969460
702.023682	61.111889
701.972107	47.522980
701.920471	67.877846
701.868835	49.768196
701.817261	47.497517
701.765625	72.364243
701.714050	49.741528
701.662415	47.472065
701.610779	27.122047
701.559204	58.753937
701.507507	65.521523
701.455933	51.956059
701.404297	27.102665
701.352661	58.711945
701.301025	65.474693
701.249390	65.462990
701.197754	60.937408
701.146118	45.130753
701.094482	31.585878
701.042847	60.904732
700.991211	15.787292
700.939575	42.843559
700.887939	45.090420
700.836243	20.287060
700.784607	58.596584
700.732971	58.586102
700.681335	63.081444
700.629700	87.847725
700.578003	33.781540
700.526367	49.537399
700.474670	69.790207
700.423035	63.025040
700.371399	56.262291
700.319702	40.501602
700.268066	78.739021
700.216370	62.979946
700.164734	76.461960
700.113037	58.460449
700.061401	44.961525
