#Wave		#Intensity
899.963257	49.688896
899.920715	117.446487
899.878235	58.713818
899.835815	72.251564
899.793274	54.179977
899.750793	67.714104
899.708252	81.243881
899.665771	72.205193
899.623230	40.608906
899.580688	94.738907
899.538208	58.638481
899.495667	36.079430
899.453186	81.165688
899.410645	67.627220
899.368103	76.631882
899.325623	90.140694
899.283020	54.075737
899.240540	94.617355
899.197998	72.077843
899.155396	49.545567
899.112854	72.054718
899.070312	63.037762
899.027771	49.521721
898.985229	72.020042
898.942688	81.009544
898.900085	49.497890
898.857544	71.985374
898.814941	67.475464
898.772400	58.469353
898.729797	62.956894
898.687256	49.458195
898.644714	53.945736
898.602112	31.463299
898.559570	58.422466
898.516907	71.893036
898.474304	53.911129
898.431763	44.918732
898.389221	71.858444
898.346558	80.827774
898.304016	80.814812
898.261353	71.823860
898.218750	62.835800
898.176147	76.288376
898.133606	53.841976
898.090942	53.833340
898.048340	44.853920
898.005676	80.724106
897.963074	85.195107
897.920471	94.147911
897.877808	71.720238
897.835205	80.672325
897.792542	58.253998
897.749939	49.283939
897.707275	80.633507
897.664673	94.057335
897.622009	80.607643
897.579346	58.207294
897.536743	67.151489
897.494080	93.997009
897.451477	62.654621
897.408752	53.695347
897.366089	58.160629
897.323425	84.990364
897.280823	62.614433
897.238098	80.491356
897.195435	53.652302
897.152710	71.524925
897.110046	67.043861
897.067383	67.033112
897.024719	44.681576
896.982056	75.946495
896.939331	84.867760
896.896667	93.786171
896.854004	58.048794
896.811279	71.433212
896.768555	58.030178
896.725830	58.020870
896.683167	58.011566
896.640442	62.463974
896.597778	66.914955
896.555054	84.745354
896.512268	53.514797
896.469604	98.094727
896.426880	80.246452
896.384094	93.605850
896.341431	84.677429
896.298706	84.663849
896.255920	62.373882
896.213257	71.273010
896.170532	84.623123
896.127747	71.250153
896.085022	71.238731
896.042236	75.679016
895.999512	66.764893
895.956787	71.204468
895.913940	88.991310
895.871216	84.528191
895.828430	62.273945
895.785767	80.053658
895.742981	93.380966
895.700195	84.473991
895.657410	102.241592
895.614624	84.446907
895.571838	71.101784
895.529114	84.419830
895.486267	106.618477
895.443481	71.067589
895.400757	62.174171
895.357910	102.126907
895.315125	115.429298
895.272339	88.777534
895.229553	71.010643
895.186768	79.874161
895.143921	93.171585
895.101135	93.156647
895.058350	102.012352
895.015442	62.084518
894.972656	84.244057
894.929871	70.930992
894.887024	53.189713
894.844238	79.771782
894.801392	75.327942
894.758545	66.455170
894.715698	79.733421
894.672913	88.578491
894.630066	53.138577
894.587219	66.412575
894.544373	97.389488
894.501526	70.817368
894.458679	84.082146
894.415894	106.192001
894.372986	75.207275
894.330078	110.581207
894.287292	79.605705
894.244446	79.592949
894.201538	75.159065
894.158691	70.726608
894.115845	101.653198
894.072876	92.798920
894.030029	66.274315
893.987183	110.439491
893.944275	114.838661
893.901428	114.820251
893.858521	75.062744
893.815552	110.368698
893.772766	75.038689
893.729858	97.093323
893.686951	114.728264
893.644043	88.238365
893.601135	74.990593
893.558167	70.568069
893.515320	101.425339
893.472412	105.818176
893.429504	88.167679
893.386536	88.153549
893.343689	83.732452
893.300720	74.906502
893.257812	92.516731
893.214844	118.931023
893.171936	88.082939
893.129028	136.506668
893.086060	66.041031
893.043091	105.648712
893.000183	101.230461
892.957275	88.012383
892.914307	114.397758
892.871338	74.786545
892.828430	109.962593
892.785461	114.342766
892.742493	87.941879
892.699524	105.513344
892.656555	87.913696
892.613525	101.084549
892.570618	131.828293
892.527649	101.052162
892.484619	79.071625
892.441711	109.804108
892.398682	96.612129
892.355652	100.987404
892.312744	114.141380
892.269775	127.291138
892.226746	114.104805
892.183777	83.370918
892.140686	87.744804
892.097717	92.117279
892.054749	105.260017
892.011719	131.553940
891.968750	122.764008
891.925720	105.209435
891.882751	122.724670
891.839722	96.411079
891.796692	109.540489
891.753662	122.665688
891.710632	113.885605
891.667603	140.144440
891.624573	105.091492
891.581482	109.452759
891.538513	161.964127
891.495422	109.417694
891.452454	126.904190
891.409363	118.133247
891.366272	131.238129
891.323242	109.347588
891.280273	104.956863
891.237122	148.665070
891.194092	118.038643
891.151062	122.390831
891.107971	122.371223
891.064880	144.200119
891.021851	126.701019
890.978760	144.153931
890.935730	148.498428
890.892639	139.740845
890.849548	122.253647
890.806458	113.503052
890.763367	130.944077
890.720276	113.466690
890.677185	100.358299
890.634155	178.870926
890.591003	122.136185
890.547913	139.561844
890.504761	130.818268
890.461731	122.077492
890.418579	100.261879
890.375488	117.679871
890.332336	100.229759
890.289246	108.927933
890.246155	78.415550
890.203003	121.960205
890.159912	135.005737
890.116760	130.629791
890.073669	130.608856
890.030457	126.235008
889.987366	143.623718
889.944214	147.952255
889.901062	108.770996
889.857910	134.854431
889.814758	126.133942
889.771606	108.718735
889.728516	139.137695
889.685364	130.420700
889.642212	121.706482
889.598999	91.265244
889.555908	143.393829
889.512695	173.782867
889.469543	139.004028
889.426392	104.236320
889.383240	151.986954
889.340027	99.861145
889.296875	125.891708
889.253723	104.169556
889.210449	117.171982
889.167297	134.509247
889.124146	121.472763
889.080933	95.427597
889.037781	117.096924
888.994507	125.750633
888.951294	134.401550
888.908081	117.040672
888.864868	156.029236
888.821716	130.003540
888.778503	138.648224
888.735291	121.297775
888.692078	121.278343
888.648804	151.573654
888.605652	121.239502
888.562378	116.890793
888.519226	138.515045
888.475952	125.509163
888.432739	108.180222
888.389465	138.448502
888.346252	125.448868
888.303040	112.453384
888.259766	142.706436
888.216492	121.064857
888.173279	116.722420
888.130066	133.993164
888.086731	112.363365
888.043457	151.234146
888.000244	120.967949
887.956970	120.948570
887.913696	133.885910
887.870483	116.591629
887.827209	146.795578
887.783936	125.187943
887.740601	125.167892
887.697327	129.463287
887.654053	133.757309
887.610779	120.793709
887.567505	150.967957
887.524231	112.129662
887.480957	86.239777
887.437622	125.027649
887.394348	150.871277
887.351074	107.747940
887.307739	129.276825
887.264404	124.947578
887.221130	112.004028
887.177734	142.136200
887.134460	133.500504
887.091125	172.231125
887.047852	129.152664
887.004517	120.523178
886.961182	133.415009
886.917908	154.908752
886.874573	150.581619
886.831238	163.462433
886.787842	90.320038
886.744568	137.608490
886.701172	141.886032
886.657837	159.058868
886.614502	189.120789
886.571167	111.735306
886.527832	128.904709
886.484436	146.068604
886.441101	146.045212
886.397766	180.379913
886.354370	167.468811
886.310974	137.388306
886.267639	128.780914
886.224304	154.512344
886.180908	158.778931
886.137451	141.590958
886.094177	167.307983
886.050781	175.859711
886.007385	158.677261
885.963989	132.924530
885.920593	201.498459
885.877197	145.741501
885.833862	154.289825
885.790405	162.835403
885.747009	149.955963
885.703613	205.620972
885.660217	188.455704
885.616821	167.013535
885.573364	149.859955
885.529968	205.489304
885.486511	111.288887
885.443115	141.228668
885.399719	188.274734
885.356323	192.522873
885.312805	222.435257
885.269409	205.291977
885.225952	218.087799
885.182556	149.644135
885.139099	153.895035
885.095642	136.773697
885.052185	205.127686
885.008728	136.729904
884.965332	153.796509
884.921875	209.300613
884.878418	175.101044
884.835022	187.883240
884.791504	187.853149
884.748108	157.942139
884.704590	187.793015
884.661072	217.634323
884.617615	209.066162
884.574219	187.702820
884.530762	208.999222
884.487244	204.701157
884.443726	208.932312
884.400269	191.845886
884.356812	200.340286
884.313232	221.617599
884.269836	242.888092
884.226257	195.983566
884.182739	212.991516
884.139343	208.698273
884.095825	191.630997
884.052307	229.920380
884.008789	161.769913
883.965332	217.077499
883.921753	242.577179
883.878235	221.263062
883.834717	199.955750
883.791199	204.177429
883.747681	229.662842
883.704163	212.616730
883.660645	204.079376
883.617126	204.046707
883.573547	221.015213
883.530029	178.483704
883.486511	203.948730
883.442932	220.909088
883.399414	229.368866
883.355896	233.579025
883.312317	267.511322
883.268738	220.767654
883.225220	220.732315
883.181641	229.185318
883.138062	233.392120
883.094482	212.140686
883.050964	233.317398
883.007385	233.280045
882.963745	165.390289
882.920227	224.725174
882.876648	245.886292
882.833069	220.414490
882.789429	220.379196
882.745911	207.631775
882.702332	245.728882
882.658691	228.745438
882.615112	241.414856
882.571533	262.549561
882.527954	207.465622
882.484314	279.398773
882.440735	279.354034
882.397156	228.525803
882.353516	232.720505
882.309875	253.836273
882.266296	228.416077
882.222656	249.525757
882.179016	194.514359
882.135437	240.990082
882.091797	215.588196
882.048218	215.553680
882.004517	207.067444
881.960876	232.385422
881.917236	223.899200
881.873657	223.863358
881.829956	253.389648
881.786316	232.236664
881.742737	265.973969
881.699036	219.498917
881.655396	227.904694
881.611694	227.868210
881.568054	248.927261
881.524414	219.358398
881.480774	177.145737
881.437073	240.373581
881.393372	240.335098
881.349731	248.728088
881.306091	236.043106
881.262390	214.933411
881.218689	210.685303
881.174988	235.929764
881.131348	206.405502
881.087646	206.372452
881.044006	210.550430
881.000244	202.096054
880.956604	197.854050
880.912903	159.941498
880.869141	227.248901
880.825500	172.513214
880.781799	201.934357
880.738098	197.695740
880.694397	193.458481
880.650574	189.222565
880.606934	239.643539
880.563232	210.179977
880.519470	226.958038
880.475769	210.112701
880.432007	184.869583
880.388306	197.442703
880.344604	189.010635
880.300842	209.978195
880.257080	226.740158
880.213379	176.325226
880.169617	201.482285
880.125854	176.268768
880.082092	180.436768
880.038391	222.363205
879.994629	197.158447
879.950867	209.709442
879.907104	188.708298
879.863342	180.292389
879.819580	180.263535
879.775818	197.000687
879.732056	167.633331
879.688293	163.416336
879.644531	125.684746
879.600708	159.175201
879.556946	184.278625
879.513123	163.311722
879.469299	154.911957
879.425598	142.328751
879.381775	154.862366
879.338013	167.391983
879.294189	133.892151
879.250427	150.604553
879.206604	146.397659
879.162781	142.192108
879.119019	150.532242
879.075134	158.869705
879.031372	137.943710
878.987549	162.998291
878.943726	142.078339
878.899963	158.768005
878.856140	137.855408
878.812317	158.717178
878.768433	158.691772
878.724609	154.490952
878.680786	179.514786
878.636963	154.441498
878.593079	146.069916
878.549255	112.664467
878.505432	158.539429
878.461609	145.999786
878.417725	129.293396
878.373840	133.442780
878.330017	175.115616
878.286194	125.062561
878.242310	145.882965
878.198425	150.027039
878.154602	141.669510
878.110718	149.979004
878.066895	129.127914
878.022949	116.612991
877.979065	170.727402
877.935181	79.104912
877.891296	162.347260
877.847473	133.186676
877.803589	145.649612
877.759705	112.340286
877.715759	104.002136
877.671936	116.463745
877.627991	137.238876
877.584106	108.110283
877.540222	133.037521
877.496277	116.389191
877.452393	124.682747
877.408447	83.108521
877.364563	137.107117
877.320679	112.160591
877.276672	120.449501
877.232788	128.735748
877.188904	161.931946
877.144958	112.088791
877.101013	107.920074
877.057068	78.852043
877.013184	95.437195
876.969238	99.570702
876.925354	87.110413
876.881348	128.570984
876.837402	103.669678
876.793457	116.091454
876.749512	91.200111
876.705566	95.330307
876.661560	91.170914
876.617676	140.877945
876.573730	95.284538
876.529724	99.411423
876.485779	91.112549
876.441833	95.238785
876.397888	124.204613
876.353821	107.626770
876.309875	99.331879
876.265869	103.454147
876.221924	91.025078
876.177917	124.105232
876.133972	95.132118
876.089966	82.710335
876.046021	86.831947
876.002014	95.086433
875.958008	111.605339
875.913940	103.321732
875.869995	107.437401
875.825989	95.025566
875.781982	82.617699
875.737976	115.646263
875.693970	103.239059
875.649902	94.964729
875.605896	99.077774
875.561890	86.679169
875.517883	103.172974
875.473877	107.282715
875.429810	136.144730
875.385864	115.498245
875.341736	111.355476
875.297791	82.472336
875.253723	74.213219
875.209656	61.834446
875.165588	140.135651
875.121521	82.419533
875.077454	123.609512
875.033447	140.068359
874.989380	123.569939
874.945374	90.603447
874.901306	119.412697
874.857239	123.510605
874.813110	123.490829
874.769104	115.239655
874.725037	115.221207
874.680969	115.202766
874.636841	119.298050
874.592773	115.165878
874.548706	127.484673
874.504639	98.682007
874.460571	135.666046
874.416443	119.202583
874.372437	123.293282
874.328308	152.037369
874.284180	119.145348
874.240051	143.773087
874.196045	172.500092
874.151917	127.301109
874.107788	119.069069
874.063660	143.681046
874.019531	139.553528
873.975464	131.323471
873.931335	102.580032
873.887207	106.666153
873.843079	118.954742
873.798950	131.239395
873.754822	131.218384
873.710754	110.697784
873.666565	118.878586
873.622437	122.958160
873.578308	102.448730
873.534180	139.307968
873.489990	122.899109
873.445862	147.455322
873.401672	135.145737
873.357605	151.502777
873.313416	155.572540
873.269287	122.800766
873.225098	147.337326
873.180969	155.497833
873.136780	130.924576
873.092590	151.357300
873.048462	163.603317
873.004272	139.040558
872.960083	139.018295
872.915894	110.379211
872.871765	126.711395
872.827576	102.170250
872.783386	110.326202
872.739197	138.907043
872.695007	102.121185
872.650818	183.788696
872.606567	138.840347
872.562439	110.237915
872.518188	167.371506
872.474060	155.099976
872.429810	122.427750
872.385559	167.291138
872.341370	134.627396
872.297241	167.237564
872.252930	122.349358
872.208740	154.951035
872.164551	167.157257
872.120361	142.672363
872.076050	154.876633
872.031860	130.401535
871.987610	171.124619
871.943359	154.802246
871.899109	171.069824
871.854919	114.028290
871.810608	138.440750
871.766418	142.489716
871.722168	150.607864
871.677917	146.513931
871.633667	142.421280
871.589417	117.987312
871.545166	158.647186
871.500916	138.285660
871.456665	130.130371
871.412354	154.505066
871.368103	182.937241
871.323853	158.520218
871.279602	154.430862
871.235229	138.152863
871.190979	105.629387
871.146790	121.860550
871.102417	146.209244
871.058105	158.367981
871.013916	146.162430
870.969604	174.554947
870.925293	133.939316
870.880981	109.569168
870.836731	150.126297
870.792419	166.329529
870.748047	137.909714
870.703796	133.832123
870.659485	125.700943
870.615173	154.060364
870.570862	125.660690
870.526550	137.799332
870.482178	113.463631
870.437866	101.290596
870.393555	162.039001
870.349243	117.459465
870.304932	97.192261
870.260559	133.617966
870.216248	113.354660
870.171875	97.145576
870.127563	121.412529
870.083252	125.439522
870.038879	125.419434
869.994507	60.677105
869.950195	125.379272
869.905823	97.052277
869.861511	84.907143
869.817078	97.021194
869.772766	97.005661
869.728394	80.825104
869.684021	113.137024
869.639648	113.118904
869.595276	109.061478
869.550903	96.928009
869.506531	96.912491
869.462158	96.896965
869.417786	76.697815
869.373413	80.721611
869.328979	80.708687
869.284607	92.800125
869.240234	80.682838
869.195862	76.636421
869.151428	88.722694
869.107056	100.805099
869.062622	80.631165
869.018250	72.556427
868.973877	44.332935
868.929443	56.414700
868.885010	48.347713
868.840637	64.453293
868.796143	40.276855
868.751770	44.297447
868.707336	60.395935
868.662903	72.463516
868.618469	64.401695
868.574036	56.342461
868.529663	36.214352
868.485229	76.440277
868.440735	60.337921
868.396301	60.328255
868.351868	96.509750
868.307434	48.247147
868.263000	52.259369
868.218506	96.463387
868.174072	64.298622
868.129578	44.198223
868.085144	40.173767
868.040710	60.250999
867.996277	64.257439
867.951721	48.185360
867.907288	52.192444
867.862793	44.155766
867.818359	36.121658
867.773865	36.115871
867.729370	32.097855
867.684937	40.115891
867.640442	48.131359
867.595947	56.144260
867.551514	48.115944
867.506958	68.153336
867.462463	48.100529
867.417969	32.061882
867.373535	44.078026
867.328979	52.083870
867.284485	32.046478
867.239929	32.041344
867.195435	56.063370
867.150940	56.054390
867.106445	28.022705
867.061890	32.020821
867.017395	48.023537
866.972839	52.017162
866.928345	48.008152
866.883789	60.000576
866.839294	43.993374
866.794739	31.990055
866.750183	51.975513
866.705688	35.977283
866.661133	39.968357
866.616638	47.954342
866.572021	23.973330
866.527527	23.969490
866.482910	47.931301
866.438416	27.955446
866.393860	35.936958
866.349304	43.915913
866.304749	51.892311
866.260193	35.919689
866.215637	23.942623
866.171021	23.938787
866.126465	35.902428
866.081909	23.931118
866.037292	23.927284
865.992676	59.808628
865.948181	39.866032
865.903564	39.859642
865.859009	47.823910
865.814392	27.892811
865.769836	39.840488
865.725159	47.800926
865.680603	0.000000
865.635986	55.749878
865.591431	43.796459
865.546753	31.846867
865.502197	19.901102
865.457581	39.795830
865.412964	55.705235
865.368347	15.913231
865.323792	39.776703
865.279114	39.770329
865.234497	39.763958
865.189880	47.709103
865.145264	27.825851
865.100647	27.821392
865.055969	55.633869
865.011353	43.705322
864.966675	47.670895
864.922058	27.803566
864.877441	27.799110
864.832825	15.882661
864.788147	23.820173
864.743469	39.693928
864.698853	47.625080
864.654175	79.362419
864.609497	43.642334
864.564880	39.668491
864.520203	47.594563
864.475586	47.586937
864.430908	79.298851
864.386169	35.678764
864.341492	39.636719
864.296875	51.519478
864.252136	87.172844
864.207520	59.426502
864.162781	55.455849
864.118103	47.525967
864.073425	59.397938
864.028687	79.184563
863.984009	51.461716
863.939331	83.117142
863.894653	51.445225
863.849976	19.783453
863.805237	90.989304
863.760559	39.554226
863.715820	71.186195
863.671143	63.266479
863.626404	47.442253
863.581665	51.387539
863.536987	39.522541
863.492249	47.419449
863.447571	39.509872
863.402832	19.751772
863.358093	75.044701
863.313354	31.592705
863.268616	55.278374
863.223877	51.321690
863.179138	71.049416
863.134338	51.305241
863.089600	39.459244
863.044861	63.124672
863.000183	59.169895
862.955444	67.048470
862.910645	59.150928
862.865906	74.912498
862.821106	59.131969
862.776367	35.473495
862.731628	43.349545
862.686890	27.581652
862.642090	74.852486
862.597290	59.084595
862.552490	55.136784
862.507751	63.003365
862.463013	51.182030
862.418213	27.555138
862.373352	47.229805
862.328613	43.287048
862.283813	23.607332
862.239014	39.339249
862.194275	47.199532
862.149475	47.191963
862.104675	43.252365
862.059814	43.245434
862.015076	47.169273
861.970215	51.091854
861.925415	11.788538
861.880615	43.217709
861.835754	54.995541
861.790955	27.493362
861.746155	31.415949
861.701294	23.558184
861.656494	58.886017
861.611694	35.325947
861.566833	51.018188
861.522034	27.466927
861.477173	47.078613
861.432373	43.148476
861.387512	39.219601
861.342651	31.370649
861.297852	39.207024
861.252991	47.040886
861.208130	50.952789
861.163269	35.269352
861.118408	66.609207
861.073608	35.258045
861.028687	66.587852
860.983826	39.163044
860.938965	39.156765
860.894165	27.405340
860.849243	27.400948
860.804382	27.396553
860.759460	23.478994
860.714600	35.212845
860.669739	39.119110
860.624817	31.290272
860.580017	31.285254
860.535095	43.010326
860.490173	7.818806
860.445251	46.905312
860.400391	31.265194
860.355469	66.427879
860.310608	42.975857
860.265686	23.437616
860.220764	27.339502
860.175903	50.765217
860.130920	46.852688
860.086060	27.326351
860.041138	39.031384
859.996216	42.927639
859.951294	42.920753
859.906372	19.506306
859.861450	39.006355
859.816467	15.600039
859.771606	35.094460
859.726685	27.291315
859.681702	11.694402
859.636780	35.077579
859.591858	31.175070
859.546936	38.962589
859.501953	35.060707
859.457031	38.950092
859.412109	42.838230
859.367065	35.043839
859.322144	11.679406
859.277161	35.032600
859.232239	38.918869
859.187256	27.238838
859.142273	27.234470
859.097290	31.120117
859.052429	35.004517
859.007385	19.443834
858.962402	27.217001
858.917419	31.100157
858.872498	19.434481
858.827454	31.090179
858.782532	34.970844
858.737488	31.080208
858.692505	19.422014
858.647522	19.418900
858.602478	27.182098
858.557495	23.295204
858.512512	58.228668
858.467529	34.931595
858.422485	31.045326
858.377502	15.520174
858.332458	15.517684
858.287537	27.151590
858.242493	34.903587
858.197449	27.142881
858.152405	27.138527
858.107422	42.639416
858.062378	15.502754
858.017334	23.250401
857.972290	23.246672
857.927307	34.864414
857.882263	30.985619
857.837219	19.362904
857.792236	27.103718
857.747131	27.099369
857.702087	30.965738
857.657043	19.350481
857.611938	11.608426
857.566956	23.213129
857.521912	23.209404
857.476807	27.073294
857.431763	15.467972
857.386719	27.064608
857.341614	38.657520
857.296570	19.325659
857.251465	38.645119
857.206421	27.047241
857.161316	23.179630
857.116272	34.763866
857.071167	23.172194
857.026123	23.168474
856.981018	27.025551
856.935974	19.300867
856.890869	27.016878
856.845764	19.294674
856.800659	23.149893
856.755554	23.146179
856.710510	42.427853
856.665344	7.712917
856.620239	30.846718
856.575134	38.552208
856.530029	30.836819
856.484924	30.831869
856.439758	19.266827
856.394653	53.938457
856.349548	19.260643
856.304443	23.109062
856.259338	30.807138
856.214233	23.101646
856.169006	23.097939
856.123962	15.396154
856.078796	30.787367
856.033630	38.478035
855.988525	19.235929
855.943420	23.079411
855.898254	23.075706
855.853027	19.226669
855.807922	30.757732
855.762756	26.908697
855.717590	26.904379
855.672485	26.900061
855.627258	15.368996
855.582153	7.683264
855.536987	34.569141
855.491821	15.361596
855.446655	19.198914
855.401489	23.034998
855.356262	26.869852
855.311096	26.865538
855.265930	23.023909
855.220764	11.510106
855.175537	15.344345
855.130371	49.861115
855.085205	26.843983
855.039978	26.839674
854.994812	26.835365
854.949646	30.664066
854.904358	30.659143
854.859192	30.654222
854.814026	22.986977
854.768799	30.644381
854.723511	11.489799
854.678406	30.634542
854.633179	11.486110
854.587952	42.108974
854.542725	34.447266
854.497498	22.961157
854.452209	26.783716
854.407043	11.476892
854.361755	7.650033
854.316589	30.595221
854.271301	7.647577
854.226074	22.939047
854.180908	15.290243
854.135681	15.287788
854.090332	11.464000
854.045105	30.565758
853.999878	38.201065
853.954651	7.638986
853.909363	11.456639
853.864136	19.091333
853.818848	15.270614
853.773621	34.353363
853.728333	26.714993
853.683044	34.342331
853.637817	15.260808
853.592529	15.258358
853.547241	26.697838
853.501953	26.693550
853.456726	38.127522
853.411438	26.684978
853.366089	0.000000
853.320801	26.676409
853.275513	30.482428
853.230225	34.287224
853.184937	19.045399
853.139648	11.425405
853.094421	19.039282
853.049072	11.421735
853.003784	11.419901
852.958435	22.836134
852.913147	19.027054
852.867859	26.633598
852.822571	26.629320
852.777222	15.214311
852.731873	7.605934
852.686584	30.418848
852.641296	41.819199
852.595886	22.806808
852.550598	0.000000
852.505249	30.399309
852.459900	15.197213
852.414551	15.194773
852.369263	18.990416
852.323914	37.974728
852.278564	26.578041
852.233215	22.777519
852.187927	30.365147
852.142517	37.950336
852.097168	34.149815
852.051819	11.381443
852.006470	15.172820
851.961121	22.755573
851.915771	26.543905
851.870361	22.748262
851.825012	34.116913
851.779602	22.740955
851.734253	11.368650
851.688843	11.366824
851.643555	15.153331
851.598145	26.514069
851.552734	7.574231
851.507324	15.146029
851.461975	41.644886
851.416565	34.067616
851.371216	34.062141
851.325806	15.136297
851.280396	30.267731
851.235046	30.262869
851.189636	22.693504
851.144165	26.471500
851.098755	34.029320
851.053345	26.462996
851.007935	41.578026
850.962524	45.350555
850.917175	15.114423
850.871765	34.001987
850.826294	30.219131
850.780945	22.660707
850.735474	22.657066
850.690002	37.755707
850.644592	18.874821
850.599182	33.969219
850.553711	26.416256
850.508301	33.958302
850.462891	22.635229
850.417419	22.631592
850.372009	26.399281
850.326538	33.936478
850.281067	30.160910
850.235657	26.386555
850.190186	22.613411
850.144714	11.304889
850.099182	41.444595
850.053772	18.835424
850.008301	33.898315
849.962830	26.361120
849.917358	33.887421
849.871887	26.352646
849.826355	11.292176
849.780945	22.580721
849.735474	15.051394
849.690002	33.860195
849.644470	37.616390
849.598999	30.088276
849.553528	26.323009
849.507996	18.799128
849.462524	7.518442
849.417053	45.103401
849.371521	26.306087
849.325989	26.301859
849.280518	22.540827
849.234985	15.024802
849.189514	26.289177
849.143982	30.039944
849.098450	26.280725
849.052979	22.522715
849.007446	30.025457
848.961914	11.257736
848.916443	37.519756
848.870911	48.767841
848.825378	15.003077
848.779846	22.500998
848.734253	26.246943
848.688721	18.744802
848.643250	14.993430
848.597656	18.738775
848.552124	41.218674
848.506592	26.225849
848.461060	14.983789
848.415466	29.962761
848.369934	29.957943
848.324341	29.953125
848.278809	22.461231
848.233276	22.457621
848.187683	37.423347
848.142151	26.192131
848.096558	14.964525
848.050964	18.702648
848.005371	26.179497
847.959839	3.739327
847.914246	56.080883
847.868652	22.428745
847.823120	18.687614
847.777466	29.895376
847.731934	7.472642
847.686340	26.150040
847.640747	18.675596
847.595093	29.876148
847.549500	37.339180
847.503906	26.133221
847.458313	18.663584
847.412720	3.732116
847.367188	11.194549
847.321533	14.923664
847.275879	48.494106
847.230286	26.108011
847.184692	26.103811
847.139038	33.556644
847.093445	18.639582
847.047791	37.273167
847.002197	44.720608
846.956543	29.808941
846.910950	40.980701
846.865356	40.974110
846.819641	29.794558
846.773987	22.342323
846.728333	26.061852
846.682739	29.780182
846.637085	26.053467
846.591431	22.327950
846.545776	40.927990
846.500183	40.921406
846.454468	33.475761
846.408813	26.032515
846.363159	59.493320
846.317505	26.024139
846.271851	22.302816
846.226135	22.299229
846.180481	52.023159
846.134827	22.292053
846.089172	26.003210
846.043457	18.570732
845.997803	33.421940
845.952148	33.416561
845.906433	22.274124
845.860718	29.694052
845.815002	40.822754
845.769348	40.816185
845.723633	33.389687
845.677979	37.093681
845.632324	25.961397
845.586548	14.832697
845.540894	18.537888
845.495178	25.948866
845.449463	37.063843
845.403748	25.940514
845.358032	29.641531
845.312317	22.227570
845.266602	22.223993
845.220886	40.737431
845.175110	25.919645
845.129456	14.808843
845.083679	37.016148
845.037964	14.804076
844.992249	37.004234
844.946533	29.598621
844.900818	18.496161
844.854980	29.589094
844.809265	29.584332
844.763550	18.487230
844.717773	33.271660
844.672058	7.392511
844.626282	33.260948
844.580505	33.255592
844.534729	7.388942
844.489014	11.081629
844.443237	18.466408
844.397522	18.463436
844.351746	22.152555
844.305969	18.457491
844.260193	25.836327
844.214417	40.593407
844.168640	25.828009
844.122803	11.067365
844.077087	14.754110
844.031250	22.127602
843.985474	18.436699
843.939697	29.493969
843.893982	62.664593
843.848145	14.742236
843.802368	62.644417
843.756531	40.528095
843.710754	14.735116
843.664917	11.049558
843.619141	25.778149
843.573303	25.773998
843.527527	33.132660
843.481689	33.127327
843.435913	33.121990
843.390137	14.718514
843.344299	47.827469
843.298462	29.427549
843.252625	25.744959
843.206787	40.449848
843.160950	29.413334
843.115112	18.380373
843.069336	40.430305
843.023438	25.724234
842.977661	14.697195
842.931763	22.042242
842.885986	36.731152
842.840088	18.362617
842.794250	18.359659
842.748413	29.370724
842.702576	25.695244
842.656677	22.020948
842.610840	25.686968
842.565002	33.020782
842.519104	11.005154
842.473206	36.677937
842.427429	14.668812
842.381531	25.666285
842.335632	18.330107
842.289795	51.316032
842.243835	32.983562
842.197998	21.985500
842.152161	43.963917
842.106262	36.630695
842.060303	21.974876
842.014465	25.633224
841.968567	32.951694
841.922668	10.982128
841.876770	29.280956
841.830933	32.935768
841.784973	14.635761
841.739075	43.900208
841.693237	18.288807
841.647278	36.571720
841.601318	51.192154
841.555420	51.183907
841.509521	29.243235
841.463562	43.857780
841.417664	29.233810
841.371765	36.536373
841.325867	40.183537
841.279907	36.524601
841.234009	43.822456
841.188049	18.256414
841.142090	29.205555
841.096130	29.200848
841.050232	51.093250
841.004272	43.787155
840.958374	25.538391
840.912415	32.829781
840.866455	25.530159
840.820496	36.465778
840.774536	21.875940
840.728638	25.517817
840.682678	18.224073
840.636719	18.221136
840.590759	47.367317
840.544800	7.286105
840.498779	21.854792
840.452820	18.209391
840.406799	61.901951
840.360901	25.484928
840.314880	32.761055
840.268921	47.313896
840.222900	36.389439
840.176941	32.745213
840.130981	29.102165
840.084961	43.646210
840.039001	40.002575
839.992981	25.452080
839.947021	43.625103
839.901001	47.252907
839.854980	32.708279
839.808960	54.505005
839.763000	25.431568
839.716980	29.059963
839.670959	21.791458
839.625000	25.419270
839.578918	14.522954
839.532959	50.822144
839.486877	39.925247
839.440857	25.402878
839.394836	29.027178
839.348816	25.394686
839.302795	50.781181
839.256775	10.879927
839.210754	21.756344
839.164673	14.501890
839.118652	43.498653
839.072571	39.867336
839.026611	21.742313
838.980530	50.723881
838.934509	7.245100
838.888428	32.597691
838.842407	21.728291
838.796265	36.207973
838.750244	36.202137
838.704224	54.294445
838.658142	36.190456
838.612061	65.132317
838.566040	32.560905
838.519958	36.172947
838.473877	21.700268
838.427734	32.545151
838.381714	32.539902
838.335632	36.149612
838.289551	61.444427
838.243469	36.137951
838.197388	39.745335
838.151245	28.901033
838.105225	50.568649
838.059143	39.726101
838.013000	28.887047
837.966919	14.441194
837.920837	28.877728
837.874695	32.482201
837.828613	32.476959
837.782471	50.511566
837.736450	36.073868
837.690308	36.068047
837.644165	32.456005
837.598083	32.450768
837.551880	54.075886
837.505798	39.649250
837.459717	36.038956
837.413513	25.223198
837.367432	28.821861
837.321289	21.612907
837.275146	57.625118
837.229004	32.408897
837.182861	32.403667
837.136780	43.197918
837.090637	25.194719
837.044434	32.387981
836.998352	46.775089
836.952148	17.987516
836.906006	61.147682
836.859863	50.348785
836.813721	39.553375
836.767578	21.571087
836.721375	57.513611
836.675171	32.346184
836.629028	35.934402
836.582825	32.335743
836.536743	35.922806
836.490540	28.733604
836.444336	28.728966
836.398132	39.495953
836.351990	35.899612
836.305786	39.483200
836.259644	28.710419
836.213440	50.235123
836.167236	28.701149
836.121094	50.218903
836.074890	25.105398
836.028625	39.444969
835.982422	46.609257
835.936218	46.601730
835.890076	28.673357
835.843872	28.668728
835.797668	21.498074
835.751404	25.077036
835.705261	46.564117
835.658997	46.556599
835.612793	21.484192
835.566528	32.221085
835.520325	17.897711
835.474121	28.631714
835.427856	28.627090
835.381653	25.044659
835.335388	35.772305
835.289185	32.189877
835.242920	35.760754
835.196716	21.452986
835.150513	32.174282
835.104248	28.594742
835.057922	39.311420
835.011719	35.731884
834.965454	35.726112
834.919250	25.004238
834.872986	35.714573
834.826660	53.563202
834.780457	46.413944
834.734192	21.418360
834.687927	46.398952
834.641663	42.822884
834.595398	35.679970
834.549072	35.674206
834.502869	46.368977
834.456543	53.494022
834.410278	28.525536
834.364014	39.216274
834.317688	35.645401
834.271423	39.203606
834.225159	24.943718
834.178833	24.939688
834.132568	28.497894
834.086243	42.739937
834.039978	21.366514
833.993652	42.726124
833.947388	39.159286
833.901062	49.831039
833.854736	35.587849
833.808472	53.373146
833.762146	46.249252
833.715820	24.899418
833.669495	42.677818
833.623169	60.450474
833.576843	7.110671
833.530518	28.438087
833.484192	53.312798
833.437866	35.536121
833.391541	17.765188
833.345215	21.314781
833.298889	28.415115
833.252563	49.718414
833.206177	35.507412
833.159851	42.602009
833.113525	24.847155
833.067200	42.588238
833.020813	31.936014
832.974487	31.930853
832.928101	42.567589
832.881775	56.747608
832.835388	53.192284
832.789062	39.001369
832.742676	10.635017
832.696289	46.077625
832.649963	42.526318
832.603577	31.889582
832.557190	38.969852
832.510803	38.963554
832.464417	46.040390
832.418091	24.786972
832.371643	21.242540
832.325317	46.018063
832.278870	31.853508
832.232483	35.387062
832.186096	31.843206
832.139709	38.913181
832.093323	24.758930
832.046936	42.437016
832.000549	42.430153
831.954102	28.282194
831.907776	56.555241
831.861328	38.875443
831.814880	45.936272
831.768494	35.329880
831.722046	45.921417
831.675659	35.318455
831.629272	17.656370
831.582825	28.245625
831.536438	17.650660
831.489929	35.295609
831.443542	17.644951
831.397156	52.926289
831.350708	35.278484
831.304260	14.109112
831.257812	52.900612
831.211365	28.209095
831.164917	35.255665
831.118530	38.774960
831.072021	35.244259
831.025574	17.619280
830.979065	31.709572
830.932678	35.227158
830.886169	35.221458
830.839722	49.302063
830.793274	52.815094
830.746826	38.724804
830.700378	38.718536
830.653931	45.750866
830.607422	31.668552
830.560974	42.217903
830.514465	17.587948
830.468018	49.238285
830.421509	31.648060
830.375061	56.254116
830.328552	24.607193
830.282043	35.147442
830.235535	49.198460
830.189087	28.108854
830.142578	28.104305
830.096130	31.612228
830.049622	42.142815
830.003113	52.669994
829.956543	56.172234
829.910095	24.571375
829.863525	31.586655
829.817078	35.090603
829.770569	38.593414
829.723999	52.618866
829.677490	31.566210
829.630981	38.574677
829.584473	49.087097
829.537964	56.090458
829.491455	24.535603
829.444885	28.036150
829.398376	42.047417
829.351868	56.054146
829.305298	77.061974
829.258789	56.035999
829.212219	52.525246
829.165710	38.512276
829.119141	66.510437
829.072571	34.999825
829.026001	45.492405
828.979492	59.480434
828.932922	27.986261
828.886353	41.972595
828.839783	31.474348
828.793274	45.455585
828.746704	59.432297
828.700134	41.945415
828.653564	41.938622
828.606995	52.414791
828.560425	52.406300
828.513794	59.384190
828.467285	52.389328
828.420715	45.396732
828.374146	59.355343
828.327515	52.363880
828.280945	55.845757
828.234375	73.285683
828.187744	62.806129
828.141113	48.841297
828.094604	48.833385
828.047974	55.800545
828.001404	69.739388
827.954773	45.323257
827.908142	27.886717
827.861572	52.279125
827.814941	55.755367
827.768311	48.778042
827.721680	41.802979
827.675110	41.796204
827.628479	38.306980
827.581909	45.264553
827.535278	59.182518
827.488586	27.846085
827.441956	34.801964
827.395386	45.235226
827.348694	41.748825
827.302063	24.349537
827.255493	62.602947
827.208862	45.205914
827.162170	38.244961
827.115540	38.238762
827.068848	24.329815
827.022217	41.701496
826.975647	38.220177
826.928955	48.635975
826.882263	38.207790
826.835571	59.038830
826.789001	34.723095
826.742249	27.773975
826.695618	41.654209
826.648987	41.647457
826.602295	55.520943
826.555603	55.511944
826.508972	41.627213
826.462280	31.215347
826.415588	52.017147
826.368896	65.877708
826.322266	48.533600
826.275574	34.661236
826.228882	48.517864
826.182190	38.114998
826.135498	34.644382
826.088806	34.638767
826.042053	45.023094
825.995361	55.404057
825.948669	41.546307
825.901978	38.077938
825.855286	41.532833
825.808594	38.065594
825.761841	31.139526
825.715149	34.593864
825.668396	65.717682
825.621765	51.873966
825.575012	41.492447
825.528320	34.571430
825.481567	44.935574
825.434814	58.752373
825.388123	38.010075
825.341370	44.913715
825.294617	27.634726
825.247864	37.991585
825.201172	34.532204
825.154419	27.621283
825.107727	31.068903
825.060974	55.224648
825.014160	37.960789
824.967468	34.504208
824.920654	65.547363
824.873962	48.290222
824.827148	48.282391
824.780396	51.722740
824.733643	41.371479
824.686890	51.705963
824.640137	72.376602
824.593384	37.905403
824.546631	44.790028
824.499817	51.672417
824.453003	44.775497
824.406311	44.768230
824.359497	58.533573
824.312744	61.966671
824.265930	48.188480
824.219177	55.063610
824.172302	55.054676
824.125549	20.642155
824.078735	51.597012
824.031982	44.710155
823.985168	44.702900
823.938354	37.819393
823.891541	55.001099
823.844788	44.681141
823.797974	61.856152
823.751221	51.538429
823.704346	44.659389
823.657532	41.217361
823.610718	44.644894
823.563904	48.071312
823.517090	34.331078
823.470276	27.460405
823.423462	41.183922
823.376648	58.334419
823.329773	30.877914
823.282959	44.594193
823.236084	51.446487
823.189331	51.438133
823.142456	48.001133
823.095642	47.993340
823.048767	44.558010
823.001953	58.258705
822.955017	44.543541
822.908203	51.388050
822.861328	61.655647
822.814514	41.097092
822.767639	30.817814
822.720764	58.201977
822.673950	58.192528
822.627075	23.957737
822.580200	58.173630
822.533386	68.428452
822.486450	37.629536
822.439636	44.464050
822.392700	27.358047
822.345825	58.126411
822.298950	58.116970
822.252075	51.271351
822.205200	47.845490
822.158325	47.837719
822.111450	71.744926
822.064514	58.069794
822.017639	34.153152
821.970764	47.806648
821.923828	37.556267
821.876953	54.618423
821.830078	61.435745
821.783142	54.600681
821.736267	37.531868
821.689331	51.171509
821.642456	47.752316
821.595520	75.027161
821.548584	44.327030
821.501648	57.956699
821.454712	57.947285
821.407837	64.754089
821.360901	61.336010
821.314026	30.663023
821.267029	34.064491
821.220154	44.276642
821.173157	57.890816
821.126221	61.286198
821.079285	47.659298
821.032349	57.862598
820.985413	68.062584
820.938477	44.233490
820.891541	51.030350
820.844604	57.824997
820.797668	61.216515
820.750671	34.003647
820.703735	57.796806
820.656738	40.791115
820.609802	64.575439
820.562866	67.963097
820.515930	40.771229
820.468933	71.338051
820.421997	67.929962
820.375000	40.751350
820.328003	50.930908
820.281006	61.107155
820.234009	40.731480
820.187073	78.055984
820.140076	40.718239
820.093140	54.282158
820.046082	44.097084
819.999146	67.830635
819.952148	57.646667
819.905090	74.589439
819.858093	57.627926
819.811096	54.229229
819.764099	77.941841
819.717163	47.435146
819.670105	50.815105
819.623108	47.419720
819.576111	50.798580
819.529114	44.018276
819.482117	40.625648
819.435059	37.234123
819.388062	74.456131
819.341064	30.454374
819.294006	50.749035
819.247009	47.358063
819.199951	71.025536
819.152954	47.342659
819.105896	47.334957
819.058838	64.229851
819.011841	60.839436
818.964783	64.208954
818.917725	60.819645
818.870667	57.431431
818.823669	70.933167
818.776611	67.544411
818.729553	57.403408
818.682434	40.513458
818.635376	43.882442
818.588379	54.000370
818.541321	74.238434
818.494263	64.104576
818.447144	77.587654
818.400146	70.829376
818.353027	70.817848
818.306030	64.062866
818.258911	57.310078
818.211853	84.265816
818.164795	53.921345
818.117676	60.651642
818.070618	74.117722
818.023499	33.684391
817.976440	47.150471
817.929321	63.979511
817.882202	57.235512
817.835144	30.296221
817.788025	57.216881
817.740967	60.572720
817.693848	57.198257
817.646729	84.101395
817.599670	60.543148
817.552551	70.622177
817.505432	70.610680
817.458374	60.513588
817.411255	73.949013
817.364075	67.215431
817.316956	57.123814
817.269897	57.114513
817.222717	50.386955
817.175598	67.171669
817.128479	60.444660
817.081360	73.864777
817.034180	46.997204
816.987061	60.415138
816.939941	43.626053
816.892822	43.618946
816.845642	87.223694
816.798523	70.438431
816.751404	80.487953
816.704224	83.827965
816.657104	60.346310
816.609985	73.744583
816.562744	67.029617
816.515625	56.965893
816.468506	63.657394
816.421265	93.795616
816.374146	80.383148
816.326965	66.975044
816.279785	77.008759
816.232605	80.343880
816.185486	66.942329
816.138306	103.743706
816.091125	70.266541
816.043945	86.982498
815.996765	70.243652
815.949585	80.265381
815.902405	53.501537
815.855164	66.866028
815.807983	90.254433
815.760803	70.186455
815.713623	43.441677
815.666443	93.551445
815.619263	70.152153
815.572083	63.460651
815.524841	86.826744
815.477661	76.795753
815.430420	60.091232
815.383240	70.095016
815.335999	76.758217
815.288757	110.113411
815.241577	53.379620
815.194336	73.385017
815.147156	93.383888
815.099915	86.699478
815.052673	56.678883
815.005432	86.671219
814.958252	73.325233
814.911011	59.983593
814.863770	83.296967
814.816528	79.952049
814.769287	66.615852
814.722046	56.614243
814.674866	96.561493
814.627563	73.241608
814.580322	83.215530
814.533081	69.889648
814.485840	73.205788
814.438599	83.174835
814.391296	86.487724
814.344055	93.125443
814.296753	93.110252
814.249573	89.770248
814.202209	69.809921
814.154968	83.093498
814.107727	86.403145
814.060486	83.066399
814.013184	86.374969
813.965881	69.753021
813.918640	76.383705
813.871338	102.935165
813.824097	69.718895
813.776794	63.068714
813.729431	73.015022
813.682190	86.276405
813.634949	92.897903
813.587585	79.613785
813.540283	92.867599
813.492981	76.271652
813.445740	79.574829
813.398376	62.986465
813.351074	76.234337
813.303833	96.105873
813.256531	62.955643
813.209167	86.135773
813.161865	66.247475
813.114502	82.795837
813.067261	72.848450
813.019958	92.701080
812.972595	69.514465
812.925232	76.122467
812.877930	95.964844
812.830566	86.023407
812.783325	109.165741
812.735962	79.380310
812.688599	89.288277
812.641296	85.967270
812.593933	76.035561
812.546631	82.633858
812.499207	92.534821
812.451904	89.215439
812.404541	105.719559
812.357239	95.792717
812.309875	102.382393
812.262512	82.552971
812.215149	75.936333
812.167786	75.923943
812.120361	85.813049
812.073059	79.199120
812.025635	82.485611
811.978333	75.874374
811.930969	108.845467
811.883545	98.934265
811.836182	92.323570
811.788818	118.682358
811.741394	105.478203
811.694031	62.617458
811.646667	82.377937
811.599304	112.015709
811.551880	75.762955
811.504456	75.750587
811.457092	85.617111
811.409668	88.895561
811.362305	102.048607
811.314941	62.535706
811.267517	88.852013
811.220154	98.708336
811.172729	82.243515
811.125305	92.097694
811.077881	101.948647
811.030457	69.050705
810.983032	82.189796
810.935608	118.333977
810.888184	101.882057
810.840820	101.865410
810.793396	105.134216
810.745911	111.686859
810.698486	82.109276
810.651062	118.218040
810.603638	128.048615
810.556213	111.613892
810.508728	128.006775
810.461365	124.704178
810.413879	104.996887
810.366394	111.540962
810.318970	118.082901
810.271545	108.224976
810.224060	104.928276
810.176636	111.468079
810.129211	131.117493
810.081726	98.322044
810.034302	104.859711
809.986816	124.500557
809.939331	131.031799
809.891907	108.083565
809.844421	137.538422
809.796936	101.499855
809.749451	104.756920
809.702026	121.105392
809.654480	94.904930
809.607056	75.257126
809.559570	94.873901
809.512085	104.671333
809.464600	111.195107
809.417114	153.685760
809.369568	107.889381
809.322144	150.366669
809.274597	153.610397
809.227173	127.443108
809.179626	130.689499
809.132141	133.934845
809.084656	101.251251
809.037109	127.359772
808.989563	97.953041
808.942078	110.995293
808.894592	127.297310
808.847107	88.114494
808.799561	120.729744
808.752014	127.234863
808.704529	123.952156
808.656982	140.238708
808.609497	140.215775
808.561951	136.932541
808.514404	133.650391
808.466858	133.628525
808.419373	136.865372
808.371826	143.359314
808.324280	143.335861
808.276733	133.541107
808.229187	140.032394
808.181641	120.473282
808.134094	133.475586
808.086548	143.218658
808.039001	133.431915
807.991455	130.156174
807.943909	139.895004
807.896301	133.366425
807.848755	120.335381
807.801208	123.567467
807.753662	126.798492
807.706055	120.276321
807.658508	139.757706
807.610901	149.483780
807.563416	129.964630
807.515747	162.429199
807.468201	152.658463
807.420654	126.653313
807.373108	165.596451
807.325439	152.583511
807.277832	149.312622
807.230347	149.288177
807.182739	171.977783
807.135132	165.460968
807.087463	97.314049
807.039917	165.406815
806.992310	145.923294
806.944702	123.203941
806.897156	149.117203
806.849548	152.333939
806.801880	132.865295
806.754272	142.563797
806.706665	136.061340
806.659058	132.800034
806.611450	155.447769
806.563843	152.184341
806.516235	123.022514
806.468567	165.082123
806.420959	119.745850
806.373291	139.141312
806.325684	155.295090
806.278076	161.739227
806.230469	152.009979
806.182800	142.283905
806.135132	155.193390
806.087524	142.237305
806.039856	171.303238
805.992249	148.653931
805.944580	148.629578
805.896973	161.527435
805.849243	155.040924
805.801636	155.015533
805.753967	135.616379
805.706299	177.563782
805.658691	161.395172
805.611023	177.505600
805.563354	138.754364
805.515625	151.636902
805.468018	151.612061
805.420349	138.686172
805.372681	141.888184
805.324951	187.003784
805.277283	154.736389
805.229614	164.380478
805.181885	170.798767
805.134216	125.661522
805.086548	180.407486
805.038879	196.483093
804.991211	183.568863
804.943481	206.078629
804.895752	183.508698
804.848083	170.602921
804.800354	180.230148
804.752686	170.546997
804.705017	205.909790
804.657288	186.575165
804.609619	167.246857
804.561890	167.219452
804.514160	173.622498
804.466431	157.520508
804.418701	160.708862
804.371033	151.041565
804.323303	176.721786
804.275513	183.118011
804.227844	199.148331
804.180115	179.846420
804.132385	192.660995
804.084595	195.839890
804.036865	195.807785
803.989197	202.194550
803.941467	189.325745
803.893738	176.461166
803.845947	218.134384
803.798218	182.817947
803.750488	221.269638
803.702759	237.264755
803.654968	211.579803
803.607178	246.802612
803.559448	185.872772
803.511719	230.700775
803.463928	205.033707
803.416199	211.406326
803.368408	195.358643
803.320679	227.347351
803.272888	220.906952
803.225159	179.257385
803.177307	192.029984
803.129578	201.598404
803.081787	223.961472
803.033997	223.924728
802.986206	191.903992
802.938416	239.840622
802.890686	246.195969
802.842896	233.368256
802.795105	207.759567
802.747253	230.095901
802.699524	284.377411
802.651672	277.941284
802.603882	255.536255
802.556091	255.494324
802.508301	271.418152
802.460510	261.795715
802.412720	287.289612
802.364929	284.050873
802.317078	284.004242
802.269226	283.957611
802.221436	315.811127
802.173645	287.053894
802.125793	280.628845
802.078003	290.148071
802.030151	299.664215
801.982361	312.364563
801.934509	286.818329
801.886719	356.870880
801.838867	334.511505
801.791016	328.085999
801.743164	321.662567
801.695312	343.899506
801.647522	382.047821
801.599609	423.366821
801.551819	391.470428
801.503967	353.220154
801.456055	362.707092
801.408203	356.285278
801.360352	362.587952
801.312500	403.869354
801.264709	394.264374
801.216797	375.125427
801.168945	387.777832
801.121094	349.578339
801.073181	409.892700
801.025391	397.117584
800.977478	400.228790
800.929565	400.163025
800.881714	365.168152
800.833862	390.506989
800.785950	390.442841
800.738037	406.247742
800.690247	406.180969
800.642334	444.187469
800.594421	440.942230
800.546570	440.869751
800.498596	440.797333
800.450745	402.676697
800.402832	427.971802
800.354980	399.374725
800.307068	402.478210
800.259155	421.423645
800.211243	383.337433
800.163330	427.620239
800.115417	446.552185
800.067505	433.812714
800.019653	405.247437
799.971680	443.166534
799.923767	424.103943
799.875854	379.732147
799.827942	446.111938
799.779968	389.097504
799.732117	376.382019
799.684143	411.106049
799.636230	458.465973
799.588257	467.874542
799.540344	442.511261
799.492371	401.354919
799.444458	439.205994
799.396545	420.178345
799.348572	407.474396
799.300598	420.040161
799.252686	401.025024
799.204712	375.701813
799.156738	391.423218
799.108826	426.076172
799.060852	400.761261
799.012878	416.470764
798.964966	324.919952
798.916992	365.869080
798.869019	378.423004
798.821045	368.901733
798.773071	312.096252
798.725098	340.412659
798.677124	356.113892
798.629150	330.847870
798.581116	324.492584
798.533203	314.989532
798.485168	311.788330
798.437256	324.332458
798.389221	330.575775
798.341248	308.486633
798.293274	339.908905
798.245300	358.733704
798.197266	339.797058
798.149292	301.992126
798.101257	317.668579
798.053223	298.748016
798.005310	339.573425
797.957275	330.086487
797.909241	248.309921
797.861206	292.266083
797.813232	292.217987
797.765198	232.479263
797.717224	201.030060
797.669189	282.651978
797.621155	270.045197
797.573120	276.279846
797.525146	251.122147
797.477112	241.665268
797.429016	225.935516
797.381042	222.760834
797.333008	272.915527
797.284912	247.779037
797.236877	260.281952
797.188843	247.697449
797.140808	238.251984
797.092773	257.019012
797.044800	238.173523
796.996704	235.000946
796.948608	219.298096
796.900635	219.261978
796.852539	247.412048
796.804504	219.189758
796.756409	203.499832
796.708374	197.205811
796.660339	194.043594
796.612244	194.011627
796.564209	159.563919
796.516113	228.357788
796.468018	172.022049
796.419983	181.375183
796.371887	193.851883
796.323792	178.189301
796.275757	200.039230
796.227600	168.755295
796.179504	174.976654
796.131470	181.195969
796.083374	184.289658
796.035278	168.644104
795.987183	168.616302
795.939087	162.344498
795.891052	152.953262
795.842896	174.774918
795.794800	143.541458
795.746643	180.957230
795.698547	152.852463
795.650452	171.540802
795.602356	155.920486
795.554260	171.484268
795.506165	155.869080
795.458069	127.791580
795.409912	149.584991
795.361816	162.023697
795.313660	143.305023
795.265564	112.133270
795.217407	158.829269
795.169312	121.437660
795.121216	158.776901
795.073059	124.510376
795.024902	99.591873
794.976746	124.469315
794.928589	146.227325
794.880493	127.538979
794.832336	133.738327
794.784180	111.948509
794.736023	136.803391
794.687866	99.476967
794.639709	108.784988
794.591553	127.412827
794.543396	121.177582
794.495239	105.624565
794.447144	90.076683
794.398926	102.484146
794.350830	90.046967
794.302612	99.345779
794.254456	96.225349
794.206238	105.520065
794.158081	114.811722
794.109924	108.587761
794.061707	105.467850
794.013550	111.653419
793.965393	96.130135
793.917236	127.118874
793.869019	105.398262
793.820862	120.878052
793.772583	123.957031
793.724426	102.247673
793.676270	120.818222
793.628052	111.506104
793.579895	108.390823
793.531677	114.565674
793.483459	114.546761
793.435242	99.051117
793.387085	117.603790
793.338806	92.829773
793.290649	99.002075
793.242371	133.012085
793.194214	114.433365
793.145996	123.691322
793.097778	95.844948
793.049561	71.099030
793.001343	108.176308
792.953064	117.429176
792.904846	135.948166
792.856628	123.568840
792.808411	157.524261
792.760193	123.528038
792.711914	132.770706
792.663696	126.574425
792.615417	157.420227
792.567200	166.652725
792.518982	129.597382
792.470703	138.831390
792.422485	135.723831
792.374207	157.290283
792.325928	166.515137
792.277710	123.324173
792.229492	194.203491
792.181152	157.186386
792.132935	144.834106
792.084656	132.485916
792.036377	154.027939
791.988098	132.442139
791.939819	120.102097
791.891602	138.556442
791.843323	175.475830
791.795044	132.354630
791.746765	160.030319
791.698486	120.002907
791.650208	135.365524
791.601929	135.343155
791.553650	116.867950
791.505371	178.347916
791.457031	138.350525
791.408752	122.957916
791.360474	156.745422
791.312195	135.209000
791.263916	141.331497
791.215576	147.451965
791.167297	147.427597
791.118958	153.545029
791.070679	125.886108
791.022339	156.564148
790.974060	138.121994
790.925720	101.272720
790.877441	135.007965
790.829102	113.510658
790.780823	119.626587
790.732422	98.138924
790.684143	134.918701
790.635803	110.369774
790.587524	128.743439
790.539185	131.786972
790.490845	113.379341
790.442505	107.232986
790.394104	131.721603
790.345825	119.448669
790.297424	131.678024
790.249146	119.409157
790.200745	131.634476
790.152405	137.734222
790.104065	131.590927
790.055725	134.628906
790.007385	107.073463
789.958984	146.819321
789.910706	128.445648
789.862305	103.962608
789.813904	107.002625
789.765564	116.155060
789.717224	122.248253
789.668823	165.007828
789.620483	152.759750
789.572083	158.843857
789.523682	116.058990
789.475342	149.630249
789.427002	131.286453
789.378601	161.791397
789.330200	143.451645
789.281799	122.066299
789.233459	134.250702
789.185059	140.329788
789.136658	106.754990
789.088257	100.638039
789.039856	125.014442
788.991455	112.799240
788.943115	124.973061
788.894714	127.999985
788.846252	106.648994
788.797913	109.677948
788.749451	97.475372
788.701050	103.550430
788.652649	100.488190
788.604248	97.426964
788.555847	109.587181
788.507385	121.743370
788.458984	76.077011
788.410522	97.362442
788.362122	112.556679
788.313660	91.247063
788.265259	91.231949
788.216858	106.419647
788.168396	103.361961
788.119995	103.344841
788.071533	94.210571
788.023071	106.349152
787.974670	103.293495
787.926208	91.126221
787.877747	88.074089
787.829346	72.876823
787.780884	72.864754
787.732422	88.030319
787.684021	72.840607
787.635559	84.966629
787.587097	81.918533
787.538635	72.804405
787.490173	78.858368
787.441711	63.682743
787.393250	90.960274
787.344788	66.693146
787.296326	66.682091
787.247803	69.701546
787.199341	93.929993
787.150879	103.002914
787.102417	90.869858
787.053894	84.797813
787.005432	75.699783
786.956909	54.494808
786.908508	93.836609
786.859985	75.662140
786.811523	57.493694
786.763000	75.637054
786.714478	93.774399
786.666016	87.709892
786.617493	48.383644
786.569031	78.610382
786.520508	51.390575
786.471985	48.359577
786.423523	42.307613
786.375000	60.429428
786.326477	39.272614
786.277954	54.368446
786.229431	42.279556
786.180908	33.214142
786.132446	45.284500
786.083923	45.276989
786.035339	54.323376
785.986816	42.244507
785.938354	45.254463
785.889771	45.246956
785.841248	30.159632
785.792725	42.216480
785.744202	45.224438
785.695679	39.188011
785.647095	48.223396
785.598572	45.201935
785.550049	39.168510
785.501465	48.199398
785.452942	42.167473
785.404358	42.160477
785.355835	33.120590
785.307251	36.125557
785.258728	39.129528
785.210205	48.151424
785.161621	45.134468
785.113037	51.143909
785.064453	54.143383
785.015930	39.097065
784.967346	30.069674
784.918762	39.084087
784.870239	36.071629
784.821594	30.054701
784.773071	18.029827
784.724487	39.058140
784.675903	27.035761
784.627319	39.045170
784.578735	30.029760
784.530151	33.027252
784.481567	36.023746
784.432983	27.013323
784.384399	42.013748
784.335754	27.004353
784.287170	35.999825
784.238586	44.992306
784.190002	23.991911
784.141357	59.969818
784.092773	35.975914
784.044128	32.972443
783.995605	38.960960
783.946960	14.982495
783.898376	44.940022
783.849670	47.928059
783.801086	32.945068
783.752502	11.978034
783.703857	38.922142
783.655212	32.928650
783.606628	23.944130
783.558044	23.940151
783.509338	5.984043
783.460693	35.898293
783.412109	26.919247
783.363464	26.914774
783.314819	5.980067
783.266174	35.874439
783.217529	32.879436
783.168884	23.908342
783.120300	20.916323
783.071594	23.900396
783.022949	29.870529
782.974304	53.758015
782.925659	8.958180
782.877014	26.870073
782.828369	17.910404
782.779663	11.938284
782.731018	53.713348
782.682373	23.868629
782.633667	35.796993
782.585022	41.756214
782.536377	38.767181
782.487671	44.723923
782.439026	41.735390
782.390320	32.786636
782.341614	23.840862
782.292969	20.857285
782.244263	32.770283
782.195557	32.764832
782.146912	44.671886
782.098206	23.821043
782.049500	44.657028
782.000854	26.789761
781.952087	41.666027
781.903442	44.634747
781.854736	26.776392
781.806030	32.721256
781.757324	29.741650
781.708618	17.842020
781.659912	32.704929
781.611206	17.836084
781.562500	44.582790
781.513794	53.490448
781.465027	17.827183
781.416382	35.648434
781.367615	26.731874
781.318909	29.697140
781.270203	17.815319
781.221436	29.687256
781.172791	29.682316
781.124023	26.709639
781.075256	35.606922
781.026550	29.667496
780.977844	29.662558
780.929077	44.486431
780.880310	20.756878
780.831604	35.577297
780.782837	50.392780
780.734131	17.782726
780.685364	8.889883
780.636597	32.590809
780.587891	17.773846
780.539062	35.541771
780.490356	23.690569
780.441589	38.490765
780.392822	17.762009
780.344055	20.718893
780.295288	23.674791
780.246521	35.506275
780.197815	41.417088
780.148987	17.747223
780.100281	20.701645
780.051453	23.655083
780.002686	20.694750
779.953918	20.691303
779.905151	14.777040
779.856384	20.684410
779.807556	38.407505
779.758789	20.677519
779.710022	41.348145
779.661194	20.670628
779.612427	26.572094
779.563599	44.279446
779.514832	29.514711
779.466003	14.754896
779.417236	23.603899
779.368408	32.449955
779.319580	8.848513
779.270813	29.490126
779.221985	26.536690
779.173218	32.428326
779.124390	26.527845
779.075562	20.629330
779.026733	26.519003
778.977966	32.406712
778.929138	32.401310
778.880310	29.450825
778.831482	41.224281
778.782593	29.441006
778.733826	26.492487
778.684937	32.374310
778.636108	32.368912
778.587341	29.421375
778.538513	23.533176
778.489624	11.764626
778.440796	17.643995
778.391968	17.641054
778.343079	23.517481
778.294250	23.513559
778.245422	17.632229
778.196594	17.629288
778.147705	0.000000
778.098816	29.372345
778.049988	17.620468
778.001099	14.681273
777.952271	11.743059
777.903381	8.805825
777.854553	32.282639
777.805664	32.277252
777.756836	5.867612
777.707886	26.399851
777.659058	11.731309
777.610168	38.120392
777.561279	23.454788
777.512451	38.107670
777.463562	14.654351
777.414673	20.512667
777.365784	14.649460
777.316895	14.647016
777.268005	29.289141
777.219116	11.713701
777.170227	5.855873
777.121277	17.564686
777.072388	20.488714
777.023560	29.264704
776.974670	5.851964
776.925720	14.627467
776.876831	23.400040
776.827881	23.396133
776.778992	32.164314
776.730103	17.541241
776.681152	11.692208
776.632263	23.380512
776.583313	20.454531
776.534424	26.294292
776.485535	17.526600
776.436584	20.444286
776.387695	2.920125
776.338684	20.437458
776.289795	23.353193
776.240906	8.755984
776.191956	14.590870
776.143005	17.506119
776.094055	29.171991
776.045105	17.500271
775.996216	26.246021
775.947266	14.578687
775.898315	17.491503
775.849365	23.318106
775.800415	2.914276
775.751465	0.000000
775.702515	17.479815
775.653564	0.000000
775.604553	29.123289
775.555664	29.118422
775.506653	0.000000
775.457703	17.465214
775.408752	20.372677
775.359802	8.729689
775.310852	14.547049
775.261841	14.544617
775.212891	23.267498
775.163879	17.447706
775.114929	23.259720
775.065918	20.348852
775.016968	23.251944
774.968018	14.530035
774.918945	17.433126
774.869995	23.240282
774.820984	20.331846
774.772034	20.328447
774.723022	17.421471
774.674011	11.612371
774.625061	26.123466
774.576050	5.804244
774.527039	8.704909
774.478027	34.813816
774.429016	26.105993
774.380005	20.301266
774.330994	17.398174
774.281982	26.092897
774.232971	26.088531
774.183960	31.880650
774.134949	8.693268
774.085876	17.383627
774.036926	26.071079
773.987915	14.481509
773.938904	17.374905
773.889832	11.581331
773.840820	11.579393
773.791809	14.471820
773.742737	14.469398
773.693665	14.466976
773.644653	11.571645
773.595581	2.892427
773.546570	14.459715
773.497559	20.240211
773.448486	28.909750
773.399475	8.671474
773.350403	11.560029
773.301331	17.337141
773.252319	8.667119
773.203247	23.108448
773.154236	17.328436
773.105103	11.550356
773.056030	28.871056
773.007019	17.319733
772.957947	5.772278
772.908875	14.428278
772.859802	0.000000
772.810730	5.769379
772.761658	28.842062
772.712585	8.651170
772.663513	5.766480
772.614441	17.296545
772.565369	25.940472
772.516296	14.408959
772.467163	23.050472
772.418091	25.927439
772.368958	11.521376
772.319946	8.639585
772.270813	8.638137
772.221741	37.425655
772.172668	11.513657
772.123535	14.389660
772.074402	5.754900
772.025330	23.015741
771.976257	2.876486
771.927124	23.008030
771.877991	5.751043
771.828918	11.500159
771.779785	5.749116
771.730652	0.000000
771.681580	5.747189
771.632446	11.492452
771.583313	11.490525
771.534180	8.616449
771.485046	20.101679
771.435974	8.613562
771.386780	14.353529
771.337708	8.610674
771.288513	17.218460
771.239380	28.692623
771.190247	20.081469
771.141113	20.078102
771.091980	14.339096
771.042908	17.204031
770.993713	5.733715
770.944519	22.931015
770.895447	8.597689
770.846313	14.327078
770.797119	17.189610
770.747925	2.864455
770.698792	17.183844
770.649658	-11.453975
770.600525	17.178080
770.551331	14.312666
770.502197	8.586159
770.453003	22.892582
770.403870	5.722186
770.354675	14.303063
770.305481	17.160797
770.256287	14.298265
770.207153	31.450905
770.157959	20.010855
770.108765	14.291069
770.059631	20.004139
770.010437	20.000782
769.961243	11.427100
769.912048	17.137774
769.862854	11.423265
769.813660	25.698032
769.764465	11.419431
769.715271	14.271893
769.666077	17.123396
769.616882	28.534203
769.567688	2.852941
769.518494	19.967237
769.469238	2.851984
769.420044	31.366552
769.370850	11.404104
769.321594	11.402189
769.272461	14.250343
769.223206	17.097540
769.173950	5.698223
769.124817	11.394533
769.075562	11.392619
769.026306	-2.847677
768.977112	14.235991
768.927856	8.540160
768.878662	14.231210
768.829407	8.537292
768.780212	22.762287
768.730957	22.758463
768.681763	14.221650
768.632446	14.219261
768.583252	5.686749
768.533997	5.685793
768.484741	2.842419
768.435486	17.051649
768.386230	8.524392
768.337036	14.204933
768.287781	-11.362037
768.238525	5.680064
768.189209	8.518664
768.140015	17.034466
768.090759	22.708803
768.041443	14.190617
767.992188	5.675292
767.942932	19.860186
767.893677	11.346770
767.844421	14.181078
767.795105	22.685911
767.745850	11.341049
767.696594	19.843498
767.647278	5.668618
767.598022	17.002995
767.548767	0.000000
767.499451	5.665759
767.450134	11.329614
767.400879	14.159636
767.351562	2.831451
767.302307	2.830975
767.252991	0.000000
767.203735	5.660045
767.154419	28.295467
767.105103	14.145354
767.055786	5.657190
767.006470	8.484358
766.957214	-8.482930
766.907837	5.654335
766.858582	19.786846
766.809265	11.304867
766.759949	14.128706
766.710632	5.650532
766.661316	5.649581
766.612000	2.824315
766.562683	8.471520
766.513367	22.586918
766.464050	14.114449
766.414673	8.467244
766.365356	19.753578
766.316040	28.214649
766.266724	19.746929
766.217346	16.923092
766.168030	5.640081
766.118713	16.917395
766.069336	11.276365
766.020020	11.274467
765.970703	19.726995
765.921326	8.453003
765.871948	16.903160
765.822632	22.533752
765.773254	2.816245
765.723938	2.815771
765.674561	19.707077
765.625244	5.629645
765.575867	11.257395
765.526489	28.138746
765.477112	19.693806
765.427795	0.000000
765.378418	16.874720
765.329041	36.555733
765.279663	16.869036
765.230286	11.244129
765.180908	11.242235
765.131531	14.050427
765.082153	19.667284
765.032715	16.854834
764.983337	19.660658
764.934021	11.232769
764.884644	5.615438
764.835205	8.421739
764.785828	14.033866
764.736450	8.418900
764.687073	19.640791
764.637634	22.442837
764.588257	2.804882
764.538818	11.217636
764.489441	11.215746
764.440063	14.017319
764.390625	14.014956
764.341187	14.012594
764.291809	14.010232
764.242432	8.404722
764.192932	8.403306
764.143555	25.205667
764.094116	8.400473
764.044739	13.998427
763.995300	-2.799213
763.945862	16.792448
763.896484	13.991347
763.847046	-5.595595
763.797607	8.391977
763.748169	27.968542
763.698730	30.760208
763.649292	25.163198
763.599854	22.363516
763.550415	11.179872
763.500977	13.972483
763.451538	19.558176
763.402100	19.554876
763.352661	19.551579
763.303162	13.963058
763.253723	19.544983
763.204285	22.333355
763.154846	13.955992
763.105408	8.372182
763.055908	11.161026
763.006470	25.108070
762.957031	16.735889
762.907532	11.155377
762.858032	16.730242
762.808594	5.575806
762.759094	0.000000
762.709656	5.573924
762.660156	19.505442
762.610718	2.786021
762.561218	5.571102
762.511780	22.280647
762.462280	13.923054
762.412781	11.136563
762.363342	-2.783671
762.313843	8.349602
762.264343	5.565462
762.214783	13.911305
762.165344	22.254330
762.115845	19.469250
762.066345	16.685112
762.016846	13.901912
761.967346	5.559825
761.917847	8.338329
761.868286	25.010765
761.818848	5.557009
761.769287	13.890176
761.719788	22.220528
761.670288	11.108387
761.620789	-8.329883
761.571228	2.776159
761.521729	22.205517
761.472229	33.302650
761.422668	5.549504
761.373169	22.194265
761.323608	16.642885
761.274109	8.320037
761.224609	19.410139
761.175049	2.772408
761.125488	19.403580
761.075989	8.314414
761.026489	11.084012
760.976929	8.311604
760.927307	11.080266
760.877808	11.078393
760.828308	16.614780
760.778687	13.843310
760.729187	13.840970
760.679626	8.303179
760.630066	19.370808
760.580566	16.600742
760.530945	22.130581
760.481384	5.531710
760.431824	13.826936
760.382263	24.884277
760.332703	5.528904
760.283142	13.819923
760.233521	5.527034
760.184021	16.578299
760.134460	16.575495
760.084839	27.621153
760.035278	13.808241
759.985657	5.522362
759.936096	16.564283
759.886536	16.561481
759.836975	5.519560
759.787354	24.833818
759.737732	2.758846
759.688232	11.033518
759.638611	24.821215
759.588989	16.544678
759.539368	0.000000
759.489807	19.295591
759.440186	8.268140
759.390564	24.800222
759.341003	22.040911
759.291443	16.527885
759.241760	13.770907
759.192200	11.014861
759.142578	11.012997
759.092957	-5.505566
759.043335	13.761586
758.993713	22.014811
758.944092	16.508312
758.894470	13.754598
758.844849	13.752270
758.795227	24.749893
758.745667	5.499045
758.695984	-5.498114
758.646362	21.988731
758.596741	19.236883
758.547058	5.495321
758.497437	13.735977
758.447815	35.707493
758.398193	16.477589
758.348511	5.491600
758.298889	13.726673
758.249268	24.703827
758.199646	16.466429
758.149963	8.231819
758.100281	24.691275
758.050659	13.715051
758.000977	2.742546
757.951355	8.226242
757.901672	2.741616
757.851990	21.929214
757.802368	13.703436
757.752686	8.220669
757.703003	10.959034
757.653320	8.217882
757.603699	19.171810
757.554016	10.953463
757.504333	13.689507
757.454651	32.849251
757.404968	8.210920
757.355286	5.473019
757.305603	13.680228
757.255920	2.735582
757.206238	21.880945
757.156616	10.938618
757.106873	13.670954
757.057190	24.603544
757.007446	27.332636
756.957764	16.396801
756.908081	8.197010
756.858398	5.463747
756.808716	8.194230
756.758972	2.730947
756.709290	13.652419
756.659607	10.920082
756.609924	8.188673
756.560120	16.374567
756.510437	19.100422
756.460693	13.640844
756.411072	5.455412
756.361328	24.545189
756.311584	8.180342
756.261902	2.726318
756.212097	27.258553
756.162415	24.528536
756.112671	19.074512
756.062927	13.622340
756.013184	2.724006
755.963501	2.723543
755.913757	19.061567
755.864014	27.226189
755.814270	13.610785
755.764587	24.495253
755.714844	8.163698
755.665100	16.324625
755.615356	10.881236
755.565552	5.439694
755.515808	19.035698
755.466064	5.437848
755.416321	8.155387
755.366577	21.744005
755.316833	21.740313
755.267029	10.868311
755.217285	29.882778
755.167542	5.432310
755.117737	24.441242
755.067993	10.860929
755.018188	5.429543
754.968445	13.571551
754.918701	24.424643
754.868896	13.566941
754.819092	2.712927
754.769348	21.699732
754.719543	13.560028
754.669739	21.692360
754.619995	24.399757
754.570190	8.131871
754.520386	16.260979
754.470642	8.129107
754.420837	10.836968
754.371033	18.961472
754.321228	8.124964
754.271484	27.078611
754.221619	2.707401
754.171875	13.534704
754.122070	21.651846
754.072205	16.236124
754.022400	2.705561
753.972595	27.051008
753.922852	13.523205
753.872986	16.225086
753.823181	5.407443
753.773376	21.626093
753.723572	8.108406
753.673706	21.618740
753.623901	0.000000
753.574097	18.909966
753.524292	10.803857
753.474426	24.304544
753.424561	21.600365
753.374756	29.695450
753.324951	2.699127
753.275085	8.096004
753.225281	13.491046
753.175415	10.791000
753.125610	18.881039
753.075745	5.393665
753.025879	-2.696374
752.976074	10.783659
752.926208	5.390913
752.876343	13.474988
752.826477	10.778156
752.776672	10.776322
752.726807	16.161732
752.676941	16.158981
752.627075	21.541643
752.577209	16.153482
752.527344	18.842522
752.477539	13.456654
752.427673	8.072618
752.377808	24.213732
752.327881	8.069870
752.278015	13.447494
752.228149	10.756164
752.178284	10.754333
752.128357	8.064376
752.078491	8.063003
752.028625	8.061630
751.978760	29.554277
751.928833	10.745180
751.878967	16.115025
751.829102	16.112280
751.779175	21.479382
751.729309	5.368931
751.679382	10.736033
751.629456	-2.683551
751.579590	10.732376
751.529663	13.413185
751.479797	18.775261
751.429871	10.726892
751.379944	5.362533
751.330078	13.404047
751.280212	13.401763
751.230225	10.719584
751.180298	18.756075
751.130371	24.110846
751.080505	8.035579
751.030579	8.034209
750.980652	16.065680
750.930725	16.062943
750.880859	10.706803
750.830872	13.381223
750.780945	10.703154
750.731018	18.727325
750.681091	5.349752
750.631165	18.720942
750.581177	13.369822
750.531311	21.388067
750.481384	29.403580
750.431396	10.690388
750.381409	21.377131
750.331482	18.701799
750.281616	16.027380
750.231628	10.683098
750.181641	16.021914
750.131714	16.019182
750.081787	16.016449
750.031799	2.668953
749.981812	16.010986
749.931885	10.672171
749.881958	16.005524
749.831970	0.000000
749.781982	18.666742
749.732056	15.997334
749.682068	13.328837
749.632080	5.330626
749.582092	7.994574
749.532104	7.993210
749.482178	10.655794
749.432190	13.317470
749.382202	13.315197
749.332214	13.312925
749.282227	18.634914
749.232239	15.970057
749.182251	7.983665
749.132263	13.303839
749.082275	18.622194
749.032288	13.299296
748.982239	15.956431
748.932312	10.635805
748.882263	10.633989
748.832275	5.316087
748.782288	5.315179
748.732239	10.628543
748.682251	18.596775
748.632263	10.624913
748.582214	18.590424
748.532227	-5.310642
748.482178	0.000000
748.432190	5.308829
748.382141	10.615844
748.332153	21.228062
748.282104	13.265272
748.232117	18.568209
748.182068	15.912888
748.132080	2.651695
748.082031	26.512419
748.031982	18.555523
747.981934	13.251680
747.931885	5.299766
747.881836	13.247151
747.831848	18.542843
747.781799	13.242624
747.731812	15.888433
747.681702	5.295239
747.631653	7.941502
747.581604	13.233574
747.531555	21.170099
747.481567	18.520670
747.431458	18.517504
747.381409	29.093960
747.331360	13.222267
747.281311	7.932003
747.231201	26.435492
747.181152	7.929292
747.131104	13.213226
747.081055	10.568773
747.030945	13.208708
746.980957	15.847738
746.930847	18.485867
746.880798	10.561545
746.830688	26.399349
746.780640	15.836900
746.730530	26.390318
746.680420	23.747223
746.630310	36.933807
746.580261	15.826067
746.530212	23.735039
746.480103	7.910326
746.429993	23.726917
746.379883	26.358730
746.329834	5.270844
746.279724	18.444798
746.229614	5.269041
746.179504	21.072556
746.129456	15.801712
746.079346	7.899504
746.029236	23.694454
745.979126	13.161333
745.929016	5.263632
745.878906	5.262731
745.828796	10.523661
745.778687	23.674183
745.728577	15.780087
745.678406	10.518256
745.628296	15.774684
745.578186	18.400646
745.528076	13.141068
745.477966	15.766582
745.427795	7.881941
745.377686	15.761182
745.327576	18.384897
745.277405	10.503856
745.227295	5.251029
745.177124	18.375452
745.127014	15.747689
745.076904	20.993322
745.026733	28.860874
744.976562	13.116332
744.926453	5.245634
744.876282	18.356573
744.826111	20.975346
744.775940	26.214691
744.725830	7.863060
744.675659	31.446850
744.625488	15.720730
744.575378	5.239346
744.525208	5.238447
744.475037	20.950199
744.424866	0.000000
744.374695	20.943018
744.324524	7.852285
744.274353	13.084899
744.224182	20.932249
744.174011	18.312578
744.123840	15.693805
744.073669	31.382229
744.023499	15.688424
743.973267	5.228578
743.923157	36.593769
743.872925	10.453570
743.822754	31.355331
743.772583	20.899969
743.722351	18.284338
743.672180	7.834801
743.622009	15.666914
743.571777	13.053522
743.521606	7.830770
743.471375	7.829426
743.421204	18.265528
743.370972	15.653481
743.320801	13.042330
743.270569	18.256128
743.220398	10.430284
743.170166	13.035617
743.119995	31.280113
743.069702	20.849831
743.019531	10.423126
742.969299	20.842674
742.919067	18.234211
742.868835	7.813321
742.818604	20.831945
742.768433	15.621277
742.718201	18.221695
742.667969	10.410609
742.617737	33.828674
742.567505	15.610553
742.517273	13.006561
742.467041	13.004328
742.416809	10.401676
742.366577	10.399890
742.316345	7.798578
742.266052	5.198159
742.215820	15.591800
742.165588	18.187309
742.115356	12.988704
742.065063	12.986473
742.014832	12.984242
741.964600	12.982012
741.914307	20.767651
741.864075	15.573063
741.813782	28.545712
741.763489	12.973094
741.713257	7.782519
741.662964	18.156092
741.612732	7.779845
741.562439	20.742689
741.512207	18.146734
741.461914	23.327505
741.411682	20.731997
741.361389	28.501596
741.311096	10.362435
741.260803	10.360654
741.210510	12.948592
741.160278	7.767820
741.109985	23.299454
741.059692	28.472214
741.009399	15.527629
740.959106	12.937466
740.908813	5.174097
740.858521	15.519621
740.808228	20.689270
740.757935	7.757142
740.707642	0.000000
740.657349	20.678598
740.606995	12.921902
740.556702	25.839357
740.506409	10.333965
740.456116	18.081329
740.405762	10.330411
740.355469	15.492950
740.305176	23.235428
740.254822	7.743810
740.204529	10.323304
740.154175	5.160764
740.103882	15.479629
740.053589	10.317976
740.003235	7.737151
739.952942	20.628851
739.902588	15.468976
739.852295	18.044033
739.801941	23.195478
739.751587	18.037823
739.701233	25.763884
739.650879	23.183504
739.600586	20.604012
739.550232	23.175522
739.499878	12.873074
739.449524	7.722515
739.399170	20.589827
739.348816	5.146570
739.298523	18.009895
739.248108	12.861996
739.197815	7.715868
739.147461	18.000593
739.097046	12.855352
739.046692	17.994394
738.996399	12.850924
738.945984	17.988195
738.895630	20.554398
738.845276	2.568857
738.794861	23.115730
738.744507	5.135944
738.694153	7.702589
738.643738	10.268350
738.593384	17.966515
738.543030	15.397217
738.492615	12.828803
738.442261	7.695955
738.391846	30.778517
738.341492	17.951040
738.291077	12.819963
738.240662	10.254202
738.190369	17.941761
738.139954	28.189337
738.089539	12.811126
738.039124	20.494268
737.988770	33.297447
737.938354	12.804502
737.887939	23.044130
737.837524	-2.560017
737.787109	12.797880
737.736755	0.000000
737.686340	20.469547
737.635925	12.791261
737.585510	10.231244
737.535095	17.901590
737.484680	-2.556929
737.434265	23.008390
737.383850	17.892328
737.333374	17.889242
737.282959	10.220661
737.232544	25.547243
737.182129	20.434269
737.131714	7.661529
737.081299	5.106805
737.030823	22.976656
736.980408	15.315128
736.929993	5.104162
736.879517	20.413124
736.829102	7.653601
736.778625	30.609119
736.728210	22.952877
736.677795	17.849157
736.627319	12.747197
736.576904	20.391994
736.526428	17.839916
736.475952	12.740597
736.425537	20.381435
736.375061	22.925158
736.324585	22.921200
736.274170	15.278161
736.223694	22.913284
736.173218	20.363848
736.122803	25.450413
736.072266	33.079823
736.021851	17.809137
735.971375	15.262338
735.920898	20.346270
735.870361	0.000000
735.819946	22.881647
735.769470	27.961626
735.718994	25.415270
735.668518	27.951965
735.618042	17.784542
735.567566	17.781469
735.517029	17.778397
735.466553	17.775326
735.416077	17.772253
735.365540	10.153819
735.315063	15.228096
735.264587	15.225464
735.214111	10.148556
735.163635	30.440403
735.113098	22.826357
735.062622	17.750765
735.012146	17.747696
734.961609	38.024204
734.911133	7.603526
734.860596	30.408846
734.810059	5.067265
734.759521	12.665972
734.709045	32.925831
734.658508	17.726229
734.608032	20.255043
734.557495	32.908752
734.506958	30.372059
734.456421	17.713970
734.405884	22.771164
734.355408	25.296919
734.304871	22.763288
734.254333	27.816984
734.203796	27.812172
734.153259	27.807362
734.102722	22.747541
734.052185	10.108269
734.001648	20.213039
733.951111	7.578578
733.900574	25.257557
733.850037	20.202549
733.799500	15.149290
733.748962	17.671112
733.698364	20.192062
733.647827	15.141426
733.597229	22.708208
733.546692	7.568092
733.496155	30.267130
733.445618	25.218241
733.395020	12.606937
733.344482	20.167608
733.293884	25.205145
733.243347	47.881485
733.192810	15.117851
733.142212	22.672850
733.091614	30.225231
733.041077	15.109999
732.990479	10.071588
732.939880	15.104765
732.889343	27.687273
732.838745	10.066356
732.788147	10.064612
732.737610	37.735756
732.687012	17.606970
732.636414	10.059382
732.585815	20.115280
732.535217	12.569871
732.484680	10.054154
732.434021	20.104826
732.383423	12.563338
732.332825	17.585627
732.282227	12.558985
732.231628	15.068170
732.181030	25.109264
732.130432	22.594419
732.079834	20.080448
732.029175	15.057726
731.978577	45.165344
731.927979	17.561256
731.877380	20.066528
731.826782	0.000000
731.776184	15.044678
731.725525	22.563105
731.674866	20.052614
731.624268	25.061422
731.573608	22.551369
731.523071	20.042185
731.472412	10.019354
731.421753	25.044041
731.371155	25.039698
731.320496	35.049496
731.269897	27.534113
731.219238	15.016002
731.168579	17.515629
731.117981	27.519787
731.067322	40.021835
731.016663	25.009306
730.966003	25.004967
730.915344	27.500690
730.864685	17.497404
730.814087	22.492758
730.763428	34.982662
730.712769	27.481607
730.662109	4.995789
730.611450	34.964451
730.560791	39.952435
730.510132	47.435280
730.459473	27.457764
730.408813	27.452997
730.358154	27.448231
730.307434	37.422909
730.256775	34.921982
730.206116	24.939941
730.155457	34.909855
730.104797	19.945024
730.054077	29.912342
730.003418	14.953573
729.952698	42.361099
729.902039	14.948380
729.851379	17.436747
729.800659	37.357967
729.750000	4.980197
729.699280	32.365658
729.648621	39.827736
729.597900	17.421608
729.547241	37.325531
729.496521	17.415554
729.445862	14.925024
729.395142	24.870716
729.344421	14.919837
729.293701	27.348282
729.242981	37.286629
729.192322	19.882746
729.141541	17.394379
729.090820	29.813751
729.040161	27.324522
728.989441	19.868925
728.938721	32.281391
728.888062	22.344770
728.837280	42.199448
728.786560	22.337000
728.735840	27.296032
728.685120	24.810259
728.634338	29.767134
728.583679	29.761957
728.532898	27.277050
728.482178	34.710209
728.431458	34.704170
728.380737	24.784382
728.330017	17.346048
728.279236	24.775759
728.228516	19.817160
728.177795	9.906856
728.127014	7.428849
728.076233	22.282671
728.025513	22.278793
727.974731	29.699888
727.924011	14.847361
727.873291	19.793036
727.822510	17.315893
727.771790	14.839610
727.721008	12.364189
727.670288	9.889630
727.619507	32.135704
727.568726	34.601658
727.517944	24.711166
727.467163	19.765491
727.416382	24.702562
727.365601	41.987045
727.314880	22.224566
727.264099	24.689663
727.213318	27.153900
727.162537	19.744852
727.111755	29.612120
727.060974	22.205221
727.010193	24.668171
726.959351	29.596649
726.908630	34.523411
726.857849	32.051868
726.807007	24.650990
726.756226	9.858678
726.705444	27.106640
726.654663	22.174297
726.603882	17.243670
726.553040	17.240665
726.502258	14.775139
726.451416	27.083035
726.400635	14.769990
726.349854	22.151123
726.299011	34.451298
726.248230	27.064159
726.197388	12.299747
726.146606	31.973766
726.095764	22.131824
726.044922	12.293315
725.994141	22.124109
725.943359	19.662447
725.892517	29.488527
725.841675	22.112539
725.790833	34.391285
725.739990	22.104828
725.689209	29.467966
725.638367	7.365706
725.587524	17.183651
725.536682	17.180655
725.485840	22.085560
725.434998	19.628185
725.384216	26.984045
725.333313	22.074005
725.282532	17.165674
725.231689	14.710869
725.180847	19.611069
725.130005	22.058603
725.079102	9.802114
725.028259	19.600805
724.977417	9.798693
724.926575	19.593966
724.875671	14.692909
724.824829	22.035517
724.773926	22.031672
724.723145	24.475363
724.672241	19.576872
724.621399	14.680091
724.570496	19.570038
724.519653	26.904104
724.468811	22.008606
724.417908	19.559790
724.367004	29.334560
724.316162	9.776480
724.265259	19.549545
724.214417	21.989397
724.163513	14.657038
724.112671	24.424129
724.061768	21.977877
724.010864	17.090919
723.960022	29.293600
723.909058	7.322121
723.858215	24.402805
723.807312	19.518833
723.756409	26.833708
723.705505	19.512014
723.654602	12.192878
723.603699	21.943346
723.552795	17.064064
723.501892	19.498379
723.451050	21.931843
723.400085	26.800901
723.349182	14.616118
723.298279	9.742376
723.247375	24.351683
723.196411	19.477942
723.145508	14.605902
723.094604	19.471130
723.043701	29.201590
722.992798	21.897364
722.941833	24.326149
722.890930	21.889706
722.839966	14.590586
722.789062	9.725356
722.738159	12.154570
722.687195	21.874399
722.636230	4.860127
722.585388	19.437109
722.534424	17.004496
722.483459	9.715155
722.432556	14.570183
722.381592	21.851450
722.330688	26.702656
722.279724	16.989626
722.228760	29.119978
722.177795	14.557441
722.126831	14.554893
722.075867	31.530085
722.024963	21.824699
721.973999	26.669964
721.923035	9.696471
721.872070	21.813242
721.821106	2.423269
721.770142	26.651297
721.719177	16.956947
721.668213	24.219969
721.617249	21.794157
721.566284	14.526894
721.515320	26.627975
721.464294	21.782711
721.413330	12.099386
721.362366	12.097268
721.311401	14.514179
721.260437	12.093031
721.209473	7.254548
721.158447	24.177589
721.107483	26.590691
721.056458	16.918385
721.005493	19.331909
720.954468	12.080327
720.903564	19.325136
720.852539	14.491313
720.801514	7.244387
720.750549	4.828745
720.699524	16.897646
720.648560	24.135263
720.597534	2.413103
720.546509	14.476083
720.495544	7.236773
720.444519	4.823670
720.393555	21.702709
720.342529	21.698904
720.291504	19.284534
720.240479	19.281153
720.189453	26.506937
720.138428	14.455794
720.087402	12.044383
720.036438	12.042272
719.985352	12.040159
719.934326	16.853268
719.883362	21.664686
719.832275	31.287949
719.781250	16.844402
719.730225	19.247368
719.679199	26.460489
719.628174	24.050770
719.577148	21.641895
719.526123	24.042334
719.475037	16.826681
719.424011	24.033897
719.372986	16.820776
719.321899	12.012732
719.270874	21.619123
719.219788	21.615330
719.168823	19.210255
719.117737	21.607742
719.066711	19.203510
719.015625	19.200140
718.964539	23.995962
718.913513	7.197525
718.862427	4.797508
718.811401	31.178326
718.760315	9.591647
718.709290	16.782434
718.658142	16.779488
718.607117	16.776541
718.556030	21.566051
718.505005	28.749685
718.453918	16.767704
718.402771	11.974829
718.351746	19.156361
718.300659	23.941244
718.249573	23.937038
718.198486	35.899250
718.147400	26.321493
718.096313	21.531982
718.045227	11.960111
717.994141	16.741213
717.943054	16.738272
717.891968	23.907616
717.840881	21.513073
717.789795	26.289135
717.738708	9.558005
717.687561	9.556325
717.636475	23.886614
717.585388	16.717691
717.534302	23.878218
717.483154	23.874020
717.432007	11.934912
717.380920	19.092501
717.329834	16.703001
717.278687	14.314341
717.227600	26.238344
717.176453	4.769769
717.125366	16.691256
717.074219	14.304276
717.023132	23.836266
716.971985	4.766415
716.920837	11.913940
716.869751	26.206059
716.818604	19.055599
716.767517	9.526124
716.716370	16.667784
716.665222	14.284158
716.614136	14.281645
716.562988	14.279132
716.511841	11.897182
716.460693	11.895089
716.409485	30.921789
716.358398	11.890903
716.307251	23.777620
716.256042	19.018749
716.204895	33.276951
716.153809	30.894587
716.102661	9.504354
716.051453	35.635052
716.000366	23.752518
715.949158	23.748337
715.898010	16.620909
715.846863	21.365976
715.795715	9.494318
715.744507	16.612129
715.693359	14.236461
715.642151	9.489303
715.591003	11.859539
715.539856	11.857450
715.488647	21.339651
715.437500	7.111964
715.386353	21.332134
715.335144	26.068014
715.283936	11.847010
715.232788	9.475938
715.181580	21.317104
715.130432	14.208899
715.079285	18.941860
715.028015	14.203891
714.976868	23.668980
714.925659	4.732962
714.874451	21.294575
714.823303	21.290821
714.772095	26.017527
714.720886	7.094439
714.669678	28.372751
714.618469	16.547853
714.567261	21.272060
714.516052	28.357746
714.464905	4.725458
714.413635	21.260811
714.362427	14.171374
714.311218	21.253313
714.260010	11.805313
714.208801	23.606462
714.157593	16.521610
714.106384	23.598137
714.055176	14.156384
714.003906	33.025738
713.952698	23.585649
713.901489	33.014084
713.850281	25.935061
713.799011	23.573168
713.747803	23.569008
713.696594	21.208364
713.645325	23.560692
713.594055	11.778267
713.542847	11.776188
713.491577	7.064466
713.440369	18.835251
713.389160	21.185917
713.337891	21.182177
713.286621	23.531597
713.235413	11.763721
713.184143	21.170959
713.132874	23.519135
713.081665	18.811985
713.030396	-2.351083
712.979126	14.104007
712.927917	21.152275
712.876648	21.148539
712.825378	7.048268
712.774109	21.141069
712.722778	16.440149
712.671570	14.089067
712.620300	28.173157
712.569031	25.820831
712.517761	21.122402
712.466492	14.079114
712.415222	4.692209
712.363953	23.456898
712.312622	14.071651
712.261353	9.379443
712.210083	14.066679
712.158813	21.096289
712.107544	16.405325
712.056213	30.461647
712.004944	14.056736
711.953674	21.081377
711.902344	14.051767
711.851074	21.073925
711.799805	18.729065
711.748474	25.747911
711.697144	9.361221
711.645874	9.359566
711.594604	14.036866
711.543274	14.034384
711.492004	4.677300
711.440674	16.367657
711.389404	16.364761
711.338074	21.036686
711.286743	9.347984
711.235413	9.346331
711.184082	23.361694
711.132812	11.678781
711.081482	23.353428
711.030212	28.019156
710.978821	25.679680
710.927490	23.341032
710.876221	21.003212
710.824829	39.665714
710.773560	20.995779
710.722229	18.659611
710.670898	9.328154
710.619568	20.984631
710.568237	20.980917
710.516907	20.977201
710.465515	23.303877
710.414185	27.959700
710.362854	13.977375
710.311523	16.304050
710.260193	13.972425
710.208862	6.984975
710.157471	16.295389
710.106140	23.275005
710.054810	11.635442
710.003418	6.980028
709.952087	13.957584
709.900757	37.213631
709.849365	16.278080
709.797974	9.300112
709.746643	20.921543
709.695251	9.296817
709.643921	23.237923
709.592529	18.587044
709.541199	18.583750
709.489807	25.548128
709.438477	9.288582
709.387024	13.930404
709.335693	23.213224
709.284302	11.604554
709.232910	16.243496
709.181519	18.560705
709.130188	27.836123
709.078796	9.277062
709.027405	13.913126
708.976013	11.592216
708.924622	11.590160
708.873230	6.952863
708.821838	23.172100
708.770447	18.534393
708.719116	20.847494
708.667664	9.263909
708.616272	20.840099
708.564880	25.466713
708.513489	18.517962
708.462036	13.886006
708.410706	18.511391
708.359253	13.881080
708.307861	16.191719
708.256470	20.814232
708.205017	9.249127
708.153625	16.183102
708.102234	4.622922
708.050781	20.799459
707.999329	16.174486
707.947937	11.551154
707.896545	13.858924
707.845093	11.547053
707.793701	9.236003
707.742249	18.468725
707.690857	13.849085
707.639404	18.462168
707.587952	20.766251
707.536499	18.455612
707.485107	23.065418
707.433655	16.142925
707.382202	18.445782
707.330750	18.442505
707.279297	11.524518
707.227905	29.958424
707.176453	4.608170
707.125061	29.947781
707.073547	25.335928
707.022095	13.817142
706.970642	13.814687
706.919250	6.906116
706.867737	25.317926
706.816345	13.807323
706.764832	9.203247
706.713379	18.403221
706.661926	9.199976
706.610474	11.497926
706.559021	16.094234
706.507507	20.688908
706.456055	4.596718
706.404602	13.787702
706.353149	13.785251
706.301636	25.268465
706.250183	18.373798
706.198730	25.259480
706.147217	11.479540
706.095764	22.954998
706.044250	18.360731
705.992798	2.294683
705.941345	22.942751
705.889832	20.644804
705.838379	11.467295
705.786804	13.758306
705.735352	22.926430
705.683838	25.214586
705.632385	18.334618
705.580872	22.914194
705.529419	4.582024
705.477844	16.034227
705.426331	13.741179
705.374817	9.159155
705.323364	25.183193
705.271851	13.733843
705.220337	22.885662
705.168823	13.728953
705.117310	16.014261
705.065796	18.298754
705.014282	27.443245
704.962830	27.438358
704.911255	22.861227
704.859741	11.428578
704.808228	25.138393
704.756714	25.133917
704.705200	34.267418
704.653625	13.704527
704.602173	25.120489
704.550598	20.549467
704.499084	18.262939
704.447571	25.107067
704.395996	20.538486
704.344482	15.971533
704.292969	9.124964
704.241455	11.404172
704.189880	29.645565
704.138306	11.400108
704.086792	22.796154
704.035278	25.071299
703.983704	22.788029
703.932129	27.340759
703.880615	18.223925
703.829041	20.498260
703.777527	22.771784
703.725952	20.490952
703.674377	31.869131
703.622803	13.655764
703.571289	25.031103
703.519714	29.576937
703.468140	11.373716
703.416565	20.469038
703.364990	27.287184
703.313416	22.735264
703.261902	15.911846
703.210327	18.181723
703.158752	9.089240
703.107178	20.447142
703.055542	18.171993
703.004028	22.710939
702.952393	22.706888
702.900818	18.162270
702.849243	18.159027
702.797668	22.694735
702.746094	24.959753
702.694519	29.492624
702.642883	18.146069
702.591309	18.142828
702.539734	27.209385
702.488098	34.005661
702.436584	22.666393
702.384949	27.194815
702.333374	18.126640
702.281738	27.185104
702.230164	15.855146
702.178528	22.646164
702.126892	15.849484
702.075317	22.638077
702.023682	11.317017
701.972107	20.366991
701.920471	11.312974
701.868835	13.573144
701.817261	31.665012
701.765625	29.397972
701.714050	13.565871
701.662415	13.563447
701.610779	13.561024
701.559204	20.337900
701.507507	22.593630
701.455933	15.812714
701.404297	20.327000
701.352661	11.290759
701.301025	20.319733
701.249390	24.830790
701.197754	13.541646
701.146118	9.026151
701.094482	6.768403
701.042847	27.068769
700.991211	18.042620
700.939575	15.784470
700.887939	18.036167
700.836243	13.524707
700.784607	13.522288
700.732971	29.293051
700.681335	22.529087
700.629700	18.020046
700.578003	13.512616
700.526367	18.013599
700.474670	18.010376
700.423035	20.258049
700.371399	20.254425
700.319702	18.000711
700.268066	22.496862
700.216370	29.240688
700.164734	17.991049
700.113037	13.490872
700.061401	15.736534
