#Wave		#Intensity
899.963257	94.860619
899.920715	72.274757
899.878235	63.230267
899.835815	9.031446
899.793274	63.209972
899.750793	63.199829
899.708252	67.703232
899.665771	63.179546
899.623230	99.266212
899.580688	49.625141
899.538208	85.702400
899.495667	49.609215
899.453186	49.601254
899.410645	49.593296
899.368103	67.616371
899.325623	49.577381
899.283020	27.037868
899.240540	27.033529
899.197998	67.572983
899.155396	94.586990
899.112854	22.517099
899.070312	49.529671
899.027771	54.023697
898.985229	76.521294
898.942688	31.503712
898.900085	85.496353
898.857544	44.990860
898.814941	26.990187
898.772400	62.966995
898.729797	31.478447
898.687256	62.946793
898.644714	22.477390
898.602112	80.905624
898.559570	53.928429
898.516907	80.879669
898.474304	22.462969
898.431763	58.394352
898.389221	67.367287
898.346558	53.885185
898.304016	58.366253
898.261353	67.334869
898.218750	103.230240
898.176147	85.263474
898.133606	85.249794
898.090942	44.861118
898.048340	40.368530
898.005676	58.300743
897.963074	85.195107
897.920471	67.248505
897.877808	89.650291
897.835205	62.745140
897.792542	35.848614
897.749939	49.283939
897.707275	71.674232
897.664673	62.704891
897.622009	31.347418
897.579346	49.252327
897.536743	49.244427
897.494080	17.904192
897.451477	62.654621
897.408752	44.746120
897.366089	53.686733
897.323425	22.365885
897.280823	80.504272
897.238098	89.434845
897.195435	31.297174
897.152710	49.173386
897.110046	71.513458
897.067383	75.970863
897.024719	62.554203
896.982056	58.076733
896.939331	53.600693
896.896667	53.592098
896.854004	75.909958
896.811279	40.181183
896.768555	58.030178
896.725830	53.557728
896.683167	107.098274
896.640442	75.849113
896.597778	57.992962
896.555054	44.602818
896.512268	89.191330
896.469604	84.718178
896.426880	66.872047
896.384094	49.031635
896.341431	57.937187
896.298706	93.575829
896.255920	49.008053
896.213257	57.909321
896.170532	66.807732
896.127747	66.797020
896.085022	71.238731
896.042236	71.227303
895.999512	40.058937
895.956787	26.701675
895.913940	57.844353
895.871216	48.937374
895.828430	57.825806
895.785767	84.501083
895.742981	35.573700
895.700195	40.013996
895.657410	31.117006
895.614624	71.113182
895.571838	57.770199
895.529114	48.874638
895.486267	26.654619
895.443481	48.858967
895.400757	17.764050
895.357910	31.082102
895.315125	31.077118
895.272339	44.388767
895.229553	53.257980
895.186768	48.811989
895.143921	44.367420
895.101135	22.180155
895.058350	97.577034
895.015442	62.084518
894.972656	70.942360
894.929871	57.631428
894.887024	53.189713
894.844238	84.203545
894.801392	79.758995
894.758545	44.303448
894.715698	79.733421
894.672913	70.862793
894.630066	84.136078
894.587219	48.702553
894.544373	22.133976
894.501526	88.521706
894.458679	53.104511
894.415894	57.520664
894.372986	75.207275
894.330078	35.385986
894.287292	57.493011
894.244446	22.109152
894.201538	30.947851
894.158691	75.147018
894.115845	57.456158
894.072876	75.122932
894.030029	57.437740
893.987183	39.758217
893.944275	70.669945
893.901428	83.907104
893.858521	30.908190
893.815552	70.635971
893.772766	75.038689
893.729858	61.786663
893.686951	52.951508
893.644043	83.826447
893.601135	70.579384
893.558167	22.052521
893.515320	48.507771
893.472412	44.090908
893.429504	57.308994
893.386536	79.338196
893.343689	35.255768
893.300720	39.656384
893.257812	61.677822
893.214844	44.048527
893.171936	79.274643
893.129028	52.841293
893.086060	61.638294
893.043091	48.422329
893.000183	52.815891
892.957275	52.807426
892.914307	43.999138
892.871338	48.391296
892.828430	48.383541
892.785461	26.386793
892.742493	65.956413
892.699524	61.549454
892.656555	39.561165
892.613525	30.764864
892.570618	96.674080
892.527649	87.871445
892.484619	39.535812
892.441711	17.568657
892.398682	35.131683
892.355652	39.516811
892.312744	61.460743
892.269775	52.672195
892.226746	35.109169
892.183777	57.043262
892.140686	39.485161
892.097717	61.411518
892.054749	21.929171
892.011719	65.776970
891.968750	61.382004
891.925720	39.453537
891.882751	48.213264
891.839722	65.734825
891.796692	43.816196
891.753662	70.094681
891.710632	21.901077
891.667603	43.795135
891.624573	43.788120
891.581482	78.805992
891.538513	8.754818
891.495422	74.404030
891.452454	43.760063
891.409363	74.380188
891.366272	21.873022
891.323242	61.234650
891.280273	30.612419
891.237122	30.607515
891.194092	61.205223
891.151062	83.050919
891.107971	48.074409
891.064880	21.848503
891.021851	39.321007
890.978760	61.156208
890.935730	65.514015
890.892639	39.302109
890.849548	52.394421
890.806458	69.848030
890.763367	65.472038
890.720276	39.276932
890.677185	34.907234
890.634155	34.901642
890.591003	91.602135
890.547913	43.613075
890.504761	61.048527
890.461731	74.118477
890.418579	52.310543
890.375488	43.585136
890.332336	65.367233
890.289246	78.428116
890.246155	34.851357
890.203003	52.268658
890.159912	43.550240
890.116760	60.960567
890.073669	43.536289
890.030457	78.352768
889.987366	82.692451
889.944214	56.569981
889.901062	30.455879
889.857910	43.501431
889.814758	69.591141
889.771606	73.928741
889.728516	65.220795
889.685364	43.473564
889.642212	34.773281
889.598999	52.151566
889.555908	60.833748
889.512695	39.101147
889.469543	26.063255
889.426392	47.774979
889.383240	39.082359
889.340027	86.835777
889.296875	56.434216
889.253723	56.425175
889.210449	34.717625
889.167297	52.068092
889.124146	43.383129
889.080933	56.389034
889.037781	104.086159
888.994507	65.043427
888.951294	47.690876
888.908081	56.352917
888.864868	47.675598
888.821716	21.667255
888.778503	12.998272
888.735291	77.977142
888.692078	38.982327
888.648804	47.637432
888.605652	69.279716
888.562378	82.256485
888.519226	51.943142
888.475952	103.869652
888.432739	47.599297
888.389465	69.224251
888.346252	64.887344
888.303040	47.576431
888.259766	47.568813
888.216492	34.589958
888.173279	34.584419
888.130066	30.256521
888.086731	30.251675
888.043457	43.209759
888.000244	17.281136
887.956970	25.917551
887.913696	51.826801
887.870483	82.045959
887.827209	8.635034
887.783936	86.336510
887.740601	0.000000
887.697327	64.731644
887.654053	64.721275
887.610779	51.768730
887.567505	47.447071
887.524231	43.126793
887.480957	34.495911
887.437622	51.735577
887.394348	77.590942
887.351074	51.719009
887.307739	56.019955
887.264404	56.010986
887.221130	90.464790
887.177734	73.221680
887.134460	81.822884
887.091125	55.975117
887.047852	55.966152
887.004517	51.652790
886.961182	90.377907
886.917908	60.242290
886.874573	86.046638
886.831238	60.223000
886.787842	64.514313
886.744568	38.702389
886.701172	42.995766
886.657837	51.586658
886.614502	60.174797
886.571167	68.760185
886.527832	55.858704
886.484436	38.665218
886.441101	73.022606
886.397766	0.000000
886.354370	-4.294072
886.310974	21.466923
886.267639	68.683151
886.224304	30.044067
886.180908	68.661156
886.137451	64.359528
886.094177	55.769329
886.050781	60.049660
886.007385	55.751469
885.963989	64.318321
885.920593	60.020817
885.877197	47.151665
885.833862	90.002396
885.790405	25.710854
885.747009	68.551300
885.703613	42.837700
885.660217	59.963181
885.616821	59.953579
885.573364	47.098843
885.529968	29.967192
885.486511	72.765808
885.443115	111.271072
885.399719	68.463539
885.356323	42.782860
885.312805	55.608814
885.269409	8.553833
885.225952	59.867241
885.182556	64.133202
885.139099	89.772110
885.095642	102.580269
885.052185	51.281921
885.008728	51.273712
884.965332	38.449127
884.921875	68.343056
884.878418	76.873634
884.835022	59.781029
884.791504	51.232677
884.748108	59.761890
884.704590	72.556389
884.661072	51.208076
884.617615	38.399906
884.574219	59.723625
884.530762	42.652905
884.487244	63.969112
884.443726	38.375320
884.400269	38.369179
884.356812	68.200951
884.313232	25.571262
884.269836	72.440308
884.226257	55.386662
884.182739	72.417114
884.139343	59.628078
884.095825	63.876999
884.052307	72.382339
884.008789	63.856544
883.965332	68.102745
883.921753	34.045921
883.878235	55.315765
883.834717	38.289398
883.791199	42.536964
883.747681	85.060310
883.704163	68.037354
883.660645	80.781425
883.617126	46.760704
883.573547	59.504097
883.530029	67.993797
883.486511	63.733978
883.442932	29.737761
883.399414	72.208717
883.355896	38.222023
883.312317	46.708328
883.268738	50.946381
883.225220	25.469112
883.181641	50.930073
883.138062	63.652397
883.094482	50.913765
883.050964	89.084824
883.007385	29.690187
882.963745	38.166988
882.920227	84.801949
882.876648	38.154770
882.833069	29.671181
882.789429	4.238061
882.745911	84.747658
882.702332	38.130344
882.658691	67.776421
882.615112	80.471619
882.571533	63.520054
882.527954	59.275894
882.484314	59.266403
882.440735	29.628458
882.397156	16.927837
882.353516	84.625641
882.309875	42.306046
882.266296	63.448910
882.222656	76.126503
882.179016	59.200024
882.135437	50.734753
882.091797	46.499413
882.048218	50.718513
882.004517	33.806931
881.960876	76.053413
881.917236	76.041237
881.873657	46.462208
881.829956	59.124252
881.786316	97.117149
881.742737	33.774471
881.699036	63.316994
881.655396	63.306858
881.611694	63.296726
881.568054	54.848381
881.524414	25.310585
881.480774	71.701843
881.437073	54.822044
881.393372	42.164051
881.349731	71.667412
881.306091	59.010777
881.262390	67.430092
881.218689	84.274124
881.174988	80.047600
881.131348	33.698856
881.087646	54.751877
881.044006	67.376137
881.000244	75.786018
880.956604	67.354568
880.912903	84.179733
880.869141	63.124695
880.825500	67.322227
880.781799	33.655727
880.738098	25.237755
880.694397	58.878666
880.650574	54.664295
880.606934	16.817091
880.563232	67.257591
880.519470	96.667313
880.475769	42.022541
880.432007	58.822140
880.388306	63.013630
880.344604	8.400473
880.300842	62.993458
880.257080	33.591133
880.213379	62.973293
880.169617	67.160759
880.125854	41.968758
880.082092	29.373426
880.038391	62.932980
879.994629	109.066376
879.950867	54.524456
879.907104	41.935177
879.863342	88.049774
879.819580	50.306103
879.775818	33.532032
879.732056	54.480831
879.688293	41.901623
879.644531	67.031868
879.600708	75.398781
879.556946	54.445957
879.513123	71.187164
879.469299	66.988953
879.425598	29.302977
879.381775	33.483757
879.338013	62.771992
879.294189	41.841297
879.250427	62.751896
879.206604	71.107430
879.162781	41.821205
879.119019	45.995964
879.075134	37.627037
879.031372	50.161350
878.987549	62.691650
878.943726	104.469360
878.899963	37.602951
878.856140	50.129242
878.812317	33.414143
878.768433	54.289291
878.724609	91.859482
878.680786	37.572865
878.636963	45.915039
878.593079	45.907688
878.549255	50.073097
878.505432	41.720901
878.461609	75.085602
878.417725	58.390564
878.373840	66.721390
878.330017	91.727226
878.286194	91.712547
878.242310	62.521271
878.198425	41.674175
878.154602	8.333501
878.110718	87.487755
878.066895	54.150417
878.022949	37.482750
877.979065	87.445747
877.935181	54.124416
877.891296	58.278503
877.847473	58.269173
877.803589	41.614174
877.759705	58.250519
877.715759	0.000000
877.671936	41.594196
877.627991	41.587536
877.584106	74.845581
877.540222	54.046490
877.496277	83.135139
877.452393	66.497459
877.408447	49.865112
877.364563	58.166653
877.320679	70.619629
877.276672	49.841171
877.232788	29.069363
877.188904	29.064709
877.144958	41.514366
877.101013	58.110809
877.057068	66.401726
877.013184	74.689980
876.969238	58.082909
876.925354	66.369843
876.881348	53.916862
876.837402	74.642166
876.793457	16.584494
876.749512	53.890976
876.705566	70.461533
876.661560	70.450256
876.617676	62.152039
876.573730	62.142090
876.529724	62.132141
876.485779	70.405151
876.441833	45.548985
876.397888	37.261383
876.353821	70.371346
876.309875	66.221252
876.265869	70.348824
876.221924	62.062553
876.177917	62.052616
876.133972	45.497967
876.089966	53.761719
876.046021	62.022823
876.002014	62.012894
875.958008	33.068249
875.913940	57.860172
875.869995	45.454285
875.825989	33.052372
875.781982	45.439735
875.737976	49.562683
875.693970	41.295624
875.649902	86.706932
875.605896	70.180084
875.561890	57.786114
875.517883	37.142269
875.473877	82.525162
875.429810	37.130379
875.385864	45.374310
875.341736	78.361259
875.297791	37.112549
875.253723	49.475479
875.209656	53.589855
875.165588	41.216366
875.121521	41.209766
875.077454	53.564121
875.033447	78.273491
874.989380	57.665974
874.945374	24.710032
874.901306	41.176792
874.857239	45.287220
874.813110	37.047249
874.769104	41.157021
874.725037	53.495564
874.680969	53.487000
874.636841	53.478436
874.592773	53.469875
874.548706	37.011681
874.504639	61.676258
874.460571	65.777473
874.416443	78.098244
874.372437	45.207535
874.328308	41.091179
874.284180	61.626904
874.240051	24.646814
874.196045	61.607174
874.151917	36.958385
874.107788	49.269958
874.063660	36.946552
874.019531	49.254185
873.975464	49.246300
873.931335	98.476830
873.887207	69.743256
873.843079	77.935867
873.798950	32.809849
873.754822	69.709763
873.710754	16.399672
873.666565	73.786705
873.622437	61.479080
873.578308	49.175388
873.534180	49.167515
873.489990	24.579823
873.445862	49.151775
873.401672	40.953255
873.357605	61.420048
873.313416	40.940144
873.269287	20.466793
873.225098	53.205143
873.180969	45.012531
873.136780	53.188110
873.092590	53.179596
873.048462	81.801659
873.004272	36.804855
872.960083	16.355095
872.915894	24.528713
872.871765	57.224503
872.827576	49.041721
872.783386	57.206181
872.739197	40.855015
872.695007	57.187862
872.650818	57.178707
872.606567	85.754326
872.562439	40.828857
872.518188	57.151249
872.474060	44.897362
872.429810	85.699425
872.385559	69.364616
872.341370	48.955418
872.297241	53.026546
872.252930	44.861431
872.208740	65.242546
872.164551	40.770061
872.120361	48.916241
872.076050	77.438316
872.031860	28.525337
871.987610	48.892746
871.943359	73.327377
871.899109	61.096367
871.854919	81.448776
871.810608	57.005016
871.766418	89.564964
871.722168	44.775314
871.677917	56.977638
871.633667	36.622616
871.589417	28.479696
871.545166	52.882397
871.500916	61.008381
871.456665	56.932037
871.412354	73.186615
871.368103	36.587448
871.323853	0.000000
871.279602	65.023521
871.235229	56.886471
871.190979	56.877361
871.146790	69.054314
871.102417	32.490944
871.058105	56.850044
871.013916	60.901009
870.969604	56.831841
870.925293	85.234108
870.880981	113.627281
870.836731	40.574673
870.792419	36.511360
870.748047	56.786354
870.703796	52.721741
870.659485	56.768169
870.615173	85.138618
870.570862	32.428566
870.526550	64.846748
870.482178	68.888634
870.437866	56.722733
870.393555	40.509750
870.349243	44.553589
870.304932	44.546455
870.260559	24.294174
870.216248	72.870857
870.171875	60.715988
870.127563	60.706264
870.083252	48.557236
870.038879	68.778397
869.994507	40.451405
869.950195	80.889854
869.905823	24.263069
869.861511	60.647961
869.817078	56.595699
869.772766	64.670441
869.728394	56.577572
869.684021	48.487297
869.639648	32.319687
869.595276	48.471767
869.550903	60.580006
869.506531	32.304161
869.462158	56.523232
869.417786	64.587631
869.373413	68.613373
869.328979	48.425213
869.284607	44.382668
869.240234	40.341419
869.195862	52.435444
869.151428	40.328499
869.107056	68.547470
869.062622	60.473373
869.018250	52.401863
868.973877	40.302670
868.929443	88.651672
868.885010	56.405666
868.840637	64.453293
868.796143	88.609085
868.751770	60.405609
868.707336	44.290352
868.662903	28.180256
868.618469	48.301273
868.574036	36.220154
868.529663	80.476334
868.485229	92.532967
868.440735	88.495613
868.396301	72.393906
868.351868	56.297356
868.307434	52.267742
868.263000	48.239418
868.218506	28.135155
868.174072	44.205303
868.129578	68.306343
868.085144	56.243275
868.040710	60.250999
867.996277	56.225258
867.951721	36.139019
867.907288	60.222054
867.862793	48.169926
867.818359	24.081104
867.773865	16.051498
867.729370	56.171246
867.684937	24.069536
867.640442	28.076626
867.595947	64.164864
867.551514	68.164253
867.506958	72.162354
867.462463	32.067020
867.417969	32.061882
867.373535	52.092213
867.328979	52.083870
867.284485	36.052288
867.239929	60.077522
867.195435	52.058846
867.150940	64.062164
867.106445	56.045410
867.061890	52.033833
867.017395	4.001961
866.972839	76.025085
866.928345	36.006115
866.883789	52.000500
866.839294	67.989761
866.794739	47.985085
866.750183	51.975513
866.705688	43.972237
866.661133	47.962025
866.616638	59.942928
866.572021	51.942215
866.527527	71.908470
866.482910	47.931301
866.438416	67.891800
866.393860	59.894932
866.349304	43.915913
866.304749	39.917160
866.260193	35.919689
866.215637	51.875683
866.171021	51.867374
866.126465	31.913271
866.081909	59.827797
866.037292	51.842449
865.992676	39.872417
865.948181	59.799046
865.903564	31.887714
865.859009	55.794559
865.814392	11.954062
865.769836	51.792633
865.725159	67.717979
865.680603	55.758812
865.635986	63.714149
865.591431	43.796459
865.546753	31.846867
865.502197	71.643967
865.457581	43.775410
865.412964	47.747341
865.368347	67.631233
865.323792	55.687386
865.279114	43.747364
865.234497	51.693146
865.189880	47.709103
865.145264	59.626823
865.100647	35.770363
865.055969	35.764629
865.011353	51.651745
864.966675	83.424065
864.922058	39.719379
864.877441	39.713017
864.832825	39.706654
864.788147	31.760233
864.743469	43.663322
864.698853	55.562595
864.654175	31.744967
864.609497	55.544792
864.564880	67.436440
864.520203	31.729710
864.475586	23.793468
864.430908	7.929885
864.386169	23.785843
864.341492	51.527737
864.296875	39.630367
864.252136	51.511223
864.207520	79.235336
864.162781	47.533585
864.118103	67.328453
864.073425	27.719038
864.028687	75.225334
863.984009	31.668749
863.939331	71.243263
863.894653	35.615925
863.849976	43.523598
863.805237	43.516621
863.760559	39.554226
863.715820	31.638309
863.671143	23.724930
863.626404	83.023949
863.581665	35.575989
863.536987	43.474796
863.492249	55.322689
863.447571	71.117775
863.402832	35.553188
863.358093	47.396652
863.313354	39.490879
863.268616	51.329918
863.223877	23.686934
863.179138	51.313465
863.134338	47.358685
863.089600	59.188866
863.044861	15.781168
863.000183	67.059212
862.955444	19.720137
862.910645	82.811302
862.865906	70.969742
862.821106	27.594919
862.776367	31.531996
862.731628	59.113014
862.686890	70.924248
862.642090	51.214859
862.597290	59.084595
862.552490	39.383415
862.507751	19.688551
862.463013	31.496634
862.418213	51.173824
862.373352	51.165623
862.328613	66.898163
862.283813	74.756554
862.239014	66.876724
862.194275	58.999413
862.149475	51.124626
862.104675	47.184399
862.059814	62.902447
862.015076	74.684685
861.970215	27.510998
861.925415	43.224640
861.880615	47.146591
861.835754	47.139034
861.790955	35.348610
861.746155	86.393860
861.701294	62.821823
861.656494	43.183079
861.611694	7.850210
861.566833	70.640564
861.522034	47.086163
861.477173	51.001831
861.432373	50.993652
861.387512	11.765880
861.342651	50.977306
861.297852	62.731239
861.252991	47.040886
861.208130	35.275009
861.163269	70.538704
861.118408	7.836378
861.073608	50.928288
861.028687	39.169323
860.983826	46.995655
860.938965	39.156765
860.894165	11.745146
860.849243	46.973053
860.804382	43.051727
860.759460	46.957989
860.714600	46.950462
860.669739	46.942932
860.624817	74.314392
860.580017	54.749195
860.535095	50.830387
860.490173	19.547014
860.445251	19.543879
860.400391	46.897789
860.355469	42.982746
860.310608	62.510334
860.265686	46.875233
860.220764	15.622572
860.175903	39.050167
860.130920	66.374641
860.086060	39.037643
860.041138	78.062767
859.996216	42.927639
859.951294	50.724529
859.906372	46.815132
859.861450	54.608898
859.816467	35.100090
859.771606	50.691998
859.726685	42.886353
859.681702	42.879475
859.636780	50.667614
859.591858	66.247025
859.546936	35.066330
859.501953	31.165071
859.457031	50.635120
859.412109	35.049461
859.367065	35.043839
859.322144	62.290169
859.277161	46.710133
859.232239	38.918869
859.187256	54.477676
859.142273	27.234470
859.097290	38.900146
859.052429	66.119644
859.007385	62.220268
858.962402	62.210289
858.917419	58.312794
858.872498	54.416542
858.827454	46.635269
858.782532	46.627789
858.737488	66.045441
858.692505	46.612835
858.647522	54.372917
858.602478	38.831570
858.557495	50.472942
858.512512	19.409555
858.467529	65.981903
858.422485	62.090652
858.377502	62.080696
858.332458	38.794209
858.287537	46.545586
858.242493	50.416294
858.197449	46.530651
858.152405	46.523190
858.107422	65.897278
858.062378	77.513771
858.017334	7.750134
857.972290	54.242233
857.927307	77.476471
857.882263	61.971237
857.837219	69.706459
857.792236	108.414871
857.747131	50.327400
857.702087	54.190044
857.657043	42.571060
857.611938	50.303181
857.566956	15.475419
857.521912	65.759979
857.476807	34.808521
857.431763	73.472862
857.386719	61.861958
857.341614	96.643806
857.296570	42.516449
857.251465	77.290237
857.206421	42.502808
857.161316	50.222534
857.116272	61.802429
857.071167	65.654549
857.026123	104.258133
856.981018	27.025551
856.935974	34.741562
856.890869	42.455093
856.845764	73.319756
856.800659	50.158100
856.755554	38.576965
856.710510	30.856619
856.665344	77.129166
856.620239	42.414234
856.575134	30.841766
856.530029	84.801247
856.484924	42.393822
856.439758	26.973557
856.394653	46.232964
856.349548	65.486183
856.304443	15.406042
856.259338	80.868736
856.214233	80.855759
856.169006	69.293816
856.123962	19.245193
856.078796	96.210526
856.033630	23.086821
855.988525	61.554974
855.943420	30.772547
855.898254	61.535217
855.853027	73.061340
855.807922	46.136600
855.762756	42.285095
855.717590	73.026169
855.672485	23.057194
855.627258	34.580242
855.582153	42.257954
855.536987	38.410156
855.491821	61.446384
855.446655	38.397827
855.401489	42.230831
855.356262	57.578251
855.311096	57.569012
855.265930	34.535862
855.220764	23.020212
855.175537	72.885635
855.130371	49.861115
855.085205	72.862244
855.039978	69.016304
854.994812	38.336239
854.949646	42.163090
854.904358	42.156322
854.859192	45.981335
854.814026	38.311626
854.768799	76.610954
854.723511	30.639462
854.678406	65.098404
854.633179	42.115734
854.587952	57.421326
854.542725	26.792318
854.497498	76.537186
854.452209	65.046165
854.407043	49.733200
854.361755	34.425148
854.316589	26.770817
854.271301	30.590307
854.226074	26.762222
854.180908	22.935364
854.135681	68.795044
854.090332	38.213333
854.045105	30.565758
853.999878	45.841278
853.954651	49.653408
853.909363	49.645435
853.864136	38.182667
853.818848	22.905920
853.773621	45.804485
853.728333	45.797131
853.683044	64.868851
853.637817	68.673637
853.592529	22.887537
853.547241	45.767723
853.501953	34.320278
853.456726	26.689264
853.411438	41.933537
853.366089	41.926804
853.320801	45.730988
853.275513	72.395767
853.230225	60.955067
853.184937	60.945278
853.139648	45.701618
853.094421	76.157127
853.049072	57.108673
853.003784	49.486237
852.958435	41.866245
852.913147	76.108215
852.867859	64.681595
852.822571	72.279587
852.777222	41.839355
852.731873	22.817801
852.686584	34.221203
852.641296	15.206982
852.595886	49.414753
852.550598	7.601048
852.505249	49.398880
852.459900	64.588158
852.414551	18.993465
852.369263	53.173161
852.323914	83.544403
852.278564	34.171768
852.233215	49.351288
852.187927	49.343361
852.142517	83.490738
852.097168	49.327511
852.051819	56.907215
852.006470	26.552435
851.961121	18.962978
851.915771	30.335892
851.870361	49.287903
851.825012	49.279987
851.779602	37.901592
851.734253	53.053703
851.688843	56.834122
851.643555	41.671661
851.598145	18.938622
851.552734	60.593849
851.507324	68.157127
851.461975	56.788483
851.416565	18.926453
851.371216	49.200871
851.325806	37.840744
851.280396	30.267731
851.235046	64.308594
851.189636	3.782251
851.144165	60.506287
851.098755	49.153461
851.053345	56.706417
851.007935	37.798203
850.962524	52.908981
850.917175	49.121876
850.871765	30.223989
850.826294	41.551308
850.780945	56.651768
850.735474	49.090309
850.690002	37.755707
850.644592	37.749641
850.599182	67.938438
850.553711	18.868755
850.508301	15.092578
850.462891	33.952843
850.417419	33.947388
850.372009	26.399281
850.326538	64.102234
850.281067	52.781590
850.235657	60.312122
850.190186	26.382313
850.144714	41.451260
850.099182	94.192261
850.053772	82.875870
850.008301	64.030151
849.962830	30.126993
849.917358	56.479034
849.871887	18.823318
849.826355	75.281174
849.780945	37.634537
849.735474	41.391335
849.690002	60.195904
849.644470	26.331474
849.598999	63.937588
849.553528	56.406448
849.507996	60.157207
849.462524	45.110653
849.417053	33.827553
849.371521	48.854164
849.325989	18.787043
849.280518	90.163307
849.234985	60.099209
849.189514	37.555965
849.143982	30.039944
849.098450	45.052673
849.052979	41.291641
849.007446	48.791370
848.961914	45.030945
848.916443	67.535561
848.870911	67.524704
848.825378	48.759998
848.779846	56.252491
848.734253	63.742577
848.688721	18.744802
848.643250	56.225365
848.597656	52.468571
848.552124	41.218674
848.506592	63.691345
848.461060	56.189213
848.415466	44.944141
848.369934	26.213200
848.324341	56.162109
848.278809	37.435387
848.233276	67.372864
848.187683	37.423347
848.142151	67.351196
848.096558	48.634708
848.050964	33.664768
848.005371	37.399281
847.959839	56.089901
847.914246	63.558331
847.868652	44.857491
847.823120	26.162661
847.777466	29.895376
847.731934	18.681604
847.686340	52.300079
847.640747	56.026787
847.595093	18.672592
847.549500	18.669590
847.503906	41.066490
847.458313	52.258038
847.412720	44.785397
847.367188	67.167290
847.321533	63.425571
847.275879	74.606316
847.230286	37.297157
847.184692	44.749393
847.139038	37.285160
847.093445	48.462914
847.047791	44.727802
847.002197	52.174042
846.956543	26.082825
846.910950	48.431736
846.865356	26.074432
846.819641	78.210716
846.773987	59.579529
846.728333	67.016190
846.682739	44.670273
846.637085	59.550781
846.591431	37.213249
846.545776	26.045084
846.500183	63.242172
846.454468	70.671059
846.408813	29.751446
846.363159	74.366646
846.317505	74.354683
846.271851	22.302816
846.226135	37.165379
846.180481	81.750679
846.134827	33.438080
846.089172	40.862186
846.043457	63.140491
845.997803	48.276134
845.952148	55.694271
845.906433	55.685310
845.860718	44.541080
845.815002	25.978115
845.769348	51.947868
845.723633	48.229546
845.677979	74.187363
845.632324	44.505253
845.586548	22.249044
845.540894	59.321239
845.495178	48.190750
845.449463	55.595764
845.403748	44.469452
845.358032	62.988251
845.312317	81.501091
845.266602	29.631990
845.220886	44.440830
845.175110	48.136486
845.129456	55.533161
845.083679	37.016148
845.037964	40.711208
844.992249	51.805927
844.946533	33.298450
844.900818	36.992321
844.854980	3.698637
844.809265	62.866703
844.763550	29.579569
844.717773	22.181105
844.672058	40.658813
844.626282	77.608879
844.580505	62.816120
844.534729	62.806007
844.489014	36.938763
844.443237	40.626099
844.397522	33.234184
844.351746	55.381390
844.305969	40.606480
844.260193	81.199883
844.214417	59.044956
844.168640	33.207439
844.122803	84.849792
844.077087	77.459076
844.031250	25.815536
843.985474	51.622757
843.939697	36.867462
843.893982	62.664593
843.848145	33.170033
843.802368	66.329384
843.756531	33.159351
843.710754	66.308022
843.664917	29.465487
843.619141	55.238892
843.573303	40.501999
843.527527	40.495476
843.481689	51.531395
843.435913	51.523098
843.390137	55.194431
843.344299	33.111324
843.298462	18.392218
843.252625	44.134212
843.206787	55.158882
843.160950	62.503334
843.115112	77.197563
843.069336	69.834167
843.023438	55.123360
842.977661	44.091583
842.931763	40.410774
842.885986	-3.673115
842.840088	66.105423
842.794250	29.375456
842.748413	44.056087
842.702576	66.073486
842.656677	66.062843
842.610840	73.391335
842.565002	66.041565
842.519104	33.015461
842.473206	51.349113
842.427429	36.672028
842.381531	25.666285
842.335632	80.652473
842.289795	47.650600
842.243835	43.978085
842.197998	43.971001
842.152161	29.309277
842.106262	40.293762
842.060303	21.974876
842.014465	69.575897
841.968567	40.274292
841.922668	29.285675
841.876770	43.921436
841.830933	51.233418
841.784973	51.225163
841.739075	73.167015
841.693237	65.839699
841.647278	32.914547
841.601318	47.535572
841.555420	69.463875
841.509521	69.452682
841.463562	51.167412
841.417664	40.196487
841.371765	43.843647
841.325867	84.020119
841.279907	47.481979
841.234009	80.341171
841.188049	47.466675
841.142090	36.506943
841.096130	25.550743
841.050232	51.093250
841.004272	58.382874
840.958374	29.186731
840.912415	43.773041
840.866455	40.118820
840.820496	32.819199
840.774536	43.751881
840.728638	80.198853
840.682678	40.092964
840.636719	36.442272
840.590759	72.872795
840.544800	54.645790
840.498779	47.352051
840.452820	47.344418
840.406799	54.619366
840.360901	21.844225
840.314880	76.442459
840.268921	50.953426
840.222900	18.194719
840.176941	58.213715
840.130981	72.755409
840.084961	32.734657
840.039001	29.092781
839.992981	61.812195
839.947021	47.260529
839.901001	54.522587
839.854980	54.513794
839.808960	36.336670
839.763000	25.431568
839.716980	54.487431
839.670959	47.214825
839.625000	47.207214
839.578918	29.045908
839.532959	94.383980
839.486877	32.666111
839.440857	68.950668
839.394836	54.425961
839.348816	58.044994
839.302795	32.645046
839.256775	50.772991
839.210754	21.756344
839.164673	58.007561
839.118652	65.247986
839.072571	25.370123
839.026611	18.118593
838.980530	57.970150
838.934509	25.357851
838.888428	61.573418
838.842407	65.184868
838.796265	68.795151
838.750244	54.303204
838.704224	57.914074
838.658142	50.666641
838.612061	79.606163
838.566040	36.178783
838.519958	36.172947
838.473877	65.100800
838.427734	65.090302
838.381714	61.464256
838.335632	50.609459
838.289551	50.601295
838.243469	43.365540
838.197388	32.518909
838.151245	57.802067
838.105225	65.016830
838.059143	68.617805
838.013000	46.941452
837.966919	54.154476
837.920837	72.194321
837.874695	83.010071
837.828613	3.608551
837.782471	43.295628
837.736450	75.755119
837.690308	21.640829
837.644165	32.456005
837.598083	39.662048
837.551880	46.865768
837.505798	32.440296
837.459717	32.435062
837.413513	36.033142
837.367432	32.424595
837.321289	50.430119
837.275146	86.437675
837.229004	50.413841
837.182861	36.004074
837.136780	75.596359
837.090637	50.389439
837.044434	50.381306
836.998352	28.784672
836.952148	39.572533
836.906006	57.550758
836.859863	46.752445
836.813721	43.149139
836.767578	28.761448
836.721375	39.540607
836.675171	50.316288
836.629028	28.747524
836.582825	46.707184
836.536743	50.291927
836.490540	50.283806
836.444336	43.093449
836.398132	39.495953
836.351990	50.259460
836.305786	50.251347
836.259644	39.476826
836.213440	35.882229
836.167236	14.350574
836.121094	43.044773
836.074890	82.489166
836.028625	64.546310
835.982422	46.609257
835.936218	35.847485
835.890076	53.762547
835.843872	75.255409
835.797668	42.996147
835.751404	57.318939
835.705261	53.727829
835.658997	68.044258
835.612793	53.710480
835.566528	68.022285
835.520325	46.534050
835.474121	50.105499
835.427856	25.048704
835.381653	53.667126
835.335388	53.658459
835.289185	35.766529
835.242920	42.912903
835.196716	25.028484
835.150513	75.073326
835.104248	21.446056
835.057922	35.737656
835.011719	53.597824
834.965454	10.717834
834.919250	28.576273
834.872986	32.143116
834.826660	42.850563
834.780457	39.273338
834.734192	96.382622
834.687927	46.398952
834.641663	64.234322
834.595398	46.383961
834.549072	42.809048
834.502869	67.770042
834.456543	64.192825
834.410278	42.788303
834.364014	32.086044
834.317688	39.209938
834.271423	32.075676
834.225159	24.943718
834.178833	39.190937
834.132568	42.746841
834.086243	71.233223
834.039978	35.610859
833.993652	42.726124
833.947388	35.599350
833.901062	60.509117
833.854736	53.381771
833.808472	46.256725
833.762146	46.249252
833.715820	42.684719
833.669495	67.573212
833.623169	39.115013
833.576843	35.553356
833.530518	71.095222
833.484192	74.637917
833.437866	53.304180
833.391541	28.424303
833.345215	46.182026
833.298889	35.518894
833.252563	53.269730
833.206177	39.058155
833.159851	42.602009
833.113525	85.190247
833.067200	39.039219
833.020813	70.968925
832.974487	28.382980
832.928101	67.398682
832.881775	56.747608
832.835388	70.923042
832.789062	78.002739
832.742676	38.995064
832.696289	53.166492
832.649963	63.789474
832.603577	31.889582
832.557190	46.055283
832.510803	67.300682
832.464417	60.206665
832.418091	53.114937
832.371643	42.485081
832.325317	56.637615
832.278870	56.628456
832.232483	49.541889
832.186096	49.533878
832.139709	70.751244
832.093323	45.980869
832.046936	24.754927
832.000549	74.252769
831.954102	67.170212
831.907776	53.020538
831.861328	56.546097
831.814880	53.003391
831.768494	49.461834
831.722046	35.324165
831.675659	52.977680
831.629272	63.562935
831.582825	70.614059
831.536438	38.831451
831.489929	70.591217
831.443542	24.702930
831.397156	45.869450
831.350708	38.806335
831.304260	84.654671
831.257812	70.534149
831.211365	81.101151
831.164917	21.153399
831.118530	28.199970
831.072021	45.817535
831.025574	21.143135
830.979065	81.035568
830.932678	21.136293
830.886169	70.442917
830.839722	45.780487
830.793274	49.294086
830.746826	42.245239
830.700378	59.837738
830.653931	49.270164
830.607422	49.262192
830.560974	77.399490
830.514465	28.140715
830.468018	73.857422
830.421509	66.812569
830.375061	59.769997
830.328552	24.607193
830.282043	21.088467
830.235535	91.368568
830.189087	70.272141
830.142578	52.695576
830.096130	31.612228
830.049622	21.071407
830.003113	38.624660
829.956543	24.575352
829.910095	24.571375
829.863525	52.644424
829.817078	28.072481
829.770569	38.593414
829.723999	59.634716
829.677490	31.566210
829.630981	21.040733
829.584473	63.111980
829.537964	52.584805
829.491455	70.101723
829.444885	14.018075
829.398376	52.559273
829.351868	66.564301
829.305298	35.028172
829.258789	59.538250
829.212219	52.525246
829.165710	38.512276
829.119141	49.007690
829.072571	69.999649
829.026001	55.990654
828.979492	27.990793
828.932922	41.979393
828.886353	90.940620
828.839783	59.451546
828.793274	41.959003
828.746704	41.952209
828.700134	59.422672
828.653564	45.433510
828.606995	48.920471
828.560425	45.418793
828.513794	62.877377
828.467285	38.418842
828.420715	27.936451
828.374146	31.423416
828.327515	38.400177
828.280945	41.884319
828.234375	69.795891
828.187744	13.956917
828.141113	52.329964
828.094604	62.785782
828.047974	38.362877
828.001404	52.304539
827.954773	52.296066
827.908142	45.315914
827.861572	41.823299
827.814941	41.816525
827.768311	41.809750
827.721680	27.868650
827.675110	52.245255
827.628479	52.236794
827.581909	24.373220
827.535278	52.219868
827.488586	48.730648
827.441956	24.361376
827.395386	48.714855
827.348694	38.269756
827.302063	52.177578
827.255493	45.213238
827.208862	73.024940
827.162170	55.629032
827.115540	38.238762
827.068848	48.659630
827.022217	62.552242
826.975647	52.118420
826.928955	45.161980
826.882263	55.574966
826.835571	38.201595
826.789001	24.306168
826.742249	27.773975
826.695618	59.010132
826.648987	48.588703
826.602295	38.170650
826.555603	69.389931
826.508972	62.440815
826.462280	31.215347
826.415588	55.484955
826.368896	41.606972
826.322266	65.867027
826.275574	51.991856
826.228882	45.052303
826.182190	48.509998
826.135498	45.037697
826.088806	34.638767
826.042053	48.486412
825.995361	45.015797
825.948669	38.084114
825.901978	48.462830
825.855286	69.221390
825.808594	20.763050
825.761841	41.519367
825.715149	41.512634
825.668396	55.341206
825.621765	69.165291
825.575012	72.611778
825.528320	34.571430
825.481567	69.131653
825.434814	69.120438
825.388123	41.465538
825.341370	41.458813
825.294617	72.541153
825.247864	44.899147
825.201172	31.078983
825.154419	41.431923
825.107727	51.781506
825.060974	55.224648
825.014160	20.705885
824.967468	41.405052
824.920654	55.197781
824.873962	41.391621
824.827148	17.243711
824.780396	62.067287
824.733643	62.057220
824.686890	51.705963
824.640137	65.483597
824.593384	55.135132
824.546631	31.008482
824.499817	58.562073
824.453003	37.886959
824.406311	44.768230
824.359497	51.647270
824.312744	58.524078
824.265930	55.072548
824.219177	55.063610
824.172302	61.936512
824.125549	55.045746
824.078735	51.597012
824.031982	30.953184
823.985168	65.335007
823.938354	68.762527
823.891541	68.751373
823.844788	79.051247
823.797974	44.673889
823.751221	44.666637
823.704346	34.353374
823.657532	37.782581
823.610718	61.816006
823.563904	54.938644
823.517090	75.528374
823.470276	72.083565
823.423462	17.159967
823.376648	37.745800
823.329773	51.463192
823.282959	24.012259
823.236084	68.595314
823.189331	30.862881
823.142456	37.715176
823.095642	65.133820
823.048767	51.413086
823.001953	44.550774
822.955017	78.807808
822.908203	68.517403
822.861328	41.103767
822.814514	34.247578
822.767639	65.059830
822.720764	51.354687
822.673950	65.038704
822.627075	65.028145
822.580200	71.861542
822.533386	6.842845
822.486450	41.050404
822.439636	51.304672
822.392700	30.777803
822.345825	27.353605
822.298950	41.023743
822.252075	34.180901
822.205200	51.263027
822.158325	71.756577
822.111450	40.997101
822.064514	27.326962
822.017639	78.552254
821.970764	58.050930
821.923828	47.798885
821.876953	54.618423
821.830078	44.370258
821.783142	40.950508
821.736267	47.767834
821.689331	23.880037
821.642456	23.876158
821.595520	23.872278
821.548584	54.556343
821.501648	68.184349
821.454712	54.538620
821.407837	47.713539
821.360901	23.852894
821.314026	57.919044
821.267029	47.690285
821.220154	54.494328
821.173157	40.864105
821.126221	34.047886
821.079285	10.212707
821.032349	37.440506
820.985413	0.000000
820.938477	64.648949
820.891541	78.246536
820.844604	47.620586
820.797668	20.405506
820.750671	57.806202
820.703735	30.598310
820.656738	54.388153
820.609802	44.183193
820.562866	54.370476
820.515930	30.578423
820.468933	64.543953
820.421997	54.343967
820.375000	33.959457
820.328003	37.349335
820.281006	23.763893
820.234009	54.308640
820.187073	44.118599
820.140076	40.718239
820.093140	54.282158
820.046082	44.097084
819.999146	50.872978
819.952148	33.909805
819.905090	81.370300
819.858093	40.678535
819.811096	37.282593
819.764099	60.997963
819.717163	54.211594
819.670105	20.326042
819.623108	44.032597
819.576111	-13.546288
819.529114	40.632256
819.482117	67.709412
819.435059	67.698402
819.388062	67.687393
819.341064	40.605831
819.294006	47.365765
819.247009	64.271652
819.199951	54.114697
819.152954	30.434566
819.105896	40.572823
819.058838	20.283112
819.011841	60.839436
818.964783	10.138256
818.917725	43.925297
818.870667	60.809750
818.823669	43.911007
818.776611	47.281086
818.729553	43.896725
818.682434	33.761215
818.635376	77.638168
818.588379	30.375210
818.541321	26.995792
818.494263	33.739250
818.447144	20.240257
818.400146	47.219582
818.353027	50.584179
818.306030	50.575947
818.258911	53.938900
818.211853	64.042023
818.164795	64.031601
818.117676	64.021179
818.070618	43.796837
818.023499	50.526585
817.976440	47.150471
817.929321	33.673428
817.882202	37.034740
817.835144	53.859947
817.788025	6.731398
817.740967	40.381813
817.693848	53.833652
817.646729	23.548389
817.599670	26.908066
817.552551	33.629608
817.505432	63.885853
817.458374	36.980526
817.411255	47.058460
817.364075	33.607716
817.316956	23.521570
817.269897	36.956451
817.222717	57.105217
817.175598	36.944416
817.128479	33.580364
817.081360	50.362347
817.034180	33.569431
816.987061	43.633156
816.939941	70.472855
816.892822	50.329556
816.845642	33.547573
816.798523	30.187899
816.751404	50.304974
816.704224	36.884304
816.657104	36.878300
816.609985	53.632427
816.562744	16.757404
816.515625	43.562153
816.468506	50.255836
816.421265	30.148592
816.374146	33.492981
816.326965	46.882534
816.279785	36.830276
816.232605	30.128954
816.185486	56.900978
816.138306	33.465710
816.091125	50.190388
816.043945	76.946060
815.996765	33.449360
815.949585	26.755127
815.902405	53.501537
815.855164	36.776314
815.807983	53.484104
815.760803	56.817604
815.713623	20.050005
815.666443	83.528076
815.619263	50.108681
815.572083	50.100513
815.524841	60.110821
815.477661	70.117867
815.430420	56.752831
815.383240	46.730011
815.335999	50.059708
815.288757	60.061859
815.241577	50.043392
815.194336	40.028191
815.147156	36.686527
815.099915	36.680550
815.052673	40.008621
815.005432	53.336136
814.958252	59.993370
814.911011	29.991796
814.863770	69.969452
814.816528	49.970032
814.769287	29.977133
814.722046	33.302494
814.674866	43.286186
814.627563	73.241608
814.580322	16.643105
814.533081	33.280785
814.485840	36.602894
814.438599	43.250912
814.391296	16.632254
814.344055	63.192261
814.296753	39.904396
814.249573	49.872360
814.202209	23.269974
814.154968	73.122276
814.107727	53.171165
814.060486	53.162495
814.013184	33.221142
813.965881	39.858868
813.918640	36.531338
813.871338	33.204891
813.824097	63.079002
813.776794	43.152279
813.729431	33.188648
813.682190	46.456528
813.634949	56.402298
813.587585	53.075855
813.540283	59.700600
813.492981	66.323181
813.445740	39.787415
813.398376	62.986465
813.351074	62.976189
813.303833	33.139957
813.256531	62.955643
813.209167	13.251657
813.161865	36.436111
813.114502	19.871000
813.067261	36.424225
813.019958	52.972046
812.972595	26.481701
812.925232	9.929018
812.877930	62.873520
812.830566	46.320297
812.783325	26.464422
812.735962	46.305180
812.688599	39.683678
812.641296	46.290070
812.593933	33.058937
812.546631	46.274960
812.499207	13.219259
812.451904	59.476959
812.404541	33.037361
812.357239	49.547955
812.309875	46.237209
812.262512	36.323307
812.215149	46.222118
812.167786	42.913532
812.120361	29.704517
812.073059	42.899521
812.025635	32.994244
811.978333	42.885517
811.930969	42.878517
811.883545	23.084661
811.836182	46.161785
811.788818	39.560787
811.741394	-3.296194
811.694031	49.434837
811.646667	56.016998
811.599304	49.418694
811.551880	69.174873
811.504456	49.402557
811.457092	29.636694
811.409668	39.509136
811.362305	59.254028
811.314941	59.244354
811.267517	16.454077
811.220154	32.902779
811.172729	65.794815
811.125305	29.602829
811.077881	36.175327
811.030457	49.321934
810.983032	16.437960
810.935608	23.009384
810.888184	46.011250
810.840820	52.575699
810.793396	52.567108
810.745911	29.564169
810.698486	45.981194
810.651062	62.392853
810.603638	36.116276
810.556213	52.524185
810.508728	52.515602
810.461365	29.535200
810.413879	32.811527
810.366394	68.892952
810.318970	62.321529
810.271545	52.472713
810.224060	45.906120
810.176636	36.063202
810.129211	49.169056
810.081726	39.328819
810.034302	49.152988
809.986816	39.315964
809.939331	39.309540
809.891907	62.229931
809.844421	68.769211
809.796936	32.741890
809.749451	39.283844
809.702026	65.462372
809.654480	45.816174
809.607056	68.713028
809.559570	35.986652
809.512085	49.064686
809.464600	55.597553
809.417114	35.969009
809.369568	22.885626
809.322144	49.032612
809.274597	42.487980
809.227173	32.677719
809.179626	49.008564
809.132141	65.334068
809.084656	16.330847
809.037109	45.718895
808.989563	48.976521
808.942078	55.497646
808.894592	55.488571
808.847107	22.844498
808.799561	65.259323
808.752014	45.674053
808.704529	58.714180
808.656982	48.920483
808.609497	39.129986
808.561951	71.726570
808.514404	48.896481
808.466858	32.592323
808.419373	58.656586
808.371826	35.839828
808.324280	61.895031
808.276733	48.856503
808.229187	39.078808
808.181641	74.888802
808.134094	26.044016
808.086548	45.569572
808.039001	55.325428
807.991455	65.078087
807.943909	45.547211
807.896301	48.792599
807.848755	42.279999
807.801208	29.265978
807.753662	19.507460
807.706055	29.256401
807.658508	39.002151
807.610901	68.242599
807.563416	42.238503
807.515747	51.977345
807.468201	42.224682
807.420654	42.217770
807.373108	48.704838
807.325439	51.943325
807.277832	48.688896
807.230347	38.944740
807.182739	38.938366
807.135132	38.931995
807.087463	51.900829
807.039917	51.892330
806.992310	32.427399
806.944702	55.117554
806.897156	51.866852
806.849548	45.376064
806.801880	45.368637
806.754272	42.121120
806.706665	48.593338
806.659058	61.541481
806.611450	12.953980
806.563843	48.569473
806.516235	42.086651
806.468567	29.132139
806.420959	32.363743
806.373291	32.358444
806.325684	61.470974
806.278076	35.582630
806.230469	48.513824
806.182800	35.570976
806.135132	38.798347
806.087524	29.093994
806.039856	25.857092
805.992249	22.621250
805.944580	29.079700
805.896973	41.997131
805.849243	58.140350
805.801636	22.606432
805.753967	22.602728
805.706299	35.512756
805.658691	29.051130
805.611023	35.501122
805.563354	45.175842
805.515625	45.168438
805.468018	38.709461
805.420349	35.477859
805.372681	51.595703
805.324951	35.466232
805.277283	38.684097
805.229614	25.785172
805.181885	45.116657
805.134216	16.110451
805.086548	61.209682
805.038879	48.315514
804.991211	54.748608
804.943481	12.879914
804.895752	41.852859
804.848083	19.313540
804.800354	19.310373
804.752686	41.832283
804.705017	41.825428
804.657288	38.601757
804.609619	38.595428
804.561890	16.078793
804.514160	41.798008
804.466431	45.005859
804.418701	41.784306
804.371033	41.777454
804.323303	38.557480
804.275513	48.188950
804.227844	48.181049
804.180115	54.596233
804.132385	41.743217
804.084595	54.578331
804.036865	51.359417
803.989197	70.607620
803.941467	60.969307
803.893738	51.334156
803.845947	54.533596
803.798218	70.561317
803.750488	44.895290
803.702759	51.300488
803.654968	35.263302
803.607178	9.615686
803.559448	32.047031
803.511719	32.041775
803.463928	28.832867
803.416199	25.625010
803.368408	51.241611
803.320679	22.414528
803.272888	73.635651
803.225159	48.015373
803.177307	48.007496
803.129578	31.999746
803.081787	41.592846
803.033997	57.580643
802.986206	57.571194
802.938416	38.374500
802.890686	28.776152
802.842896	54.346035
802.795105	41.551910
802.747253	35.153542
802.699524	12.781008
802.651672	44.726185
802.603882	47.913048
802.556091	38.324146
802.508301	51.090477
802.460510	38.311569
802.412720	28.728960
802.364929	47.873741
802.317078	38.292706
802.269226	25.524281
802.221436	47.850170
802.173645	57.410778
802.125793	35.078606
802.078003	41.449726
802.030151	47.818756
801.982361	38.248722
801.934509	47.803055
801.886719	54.167900
801.838867	41.415710
801.791016	12.741203
801.743164	63.695557
801.695312	41.395313
801.647522	50.939713
801.599609	70.030602
801.551819	35.009548
801.503967	28.639473
801.456055	63.632820
801.408203	79.527962
801.360352	47.708942
801.312500	57.241325
801.264709	34.975063
801.216797	54.043495
801.168945	95.355209
801.121094	47.669773
801.073181	41.307014
801.025391	57.184933
800.977478	31.764189
800.929565	50.814354
800.881714	53.981380
800.833862	44.447948
800.785950	38.091984
800.738037	41.259537
800.690247	15.866445
800.642334	22.209373
800.594421	25.377970
800.546570	34.888973
800.498596	41.225647
800.450745	50.730923
800.402832	47.552422
800.354980	31.696405
800.307068	38.029434
800.259155	50.697582
800.211243	38.016937
800.163330	38.010689
800.115417	53.839622
800.067505	31.665161
800.019653	37.991947
799.971680	63.309505
799.923767	37.979458
799.875854	28.479912
799.827942	15.819572
799.779968	44.287521
799.732117	53.768860
799.684143	28.461187
799.636230	22.132839
799.588257	44.258400
799.540344	85.341454
799.492371	28.442474
799.444458	31.597553
799.396545	56.866241
799.348572	53.698174
799.300598	44.214756
799.252686	75.784256
799.204712	44.200214
799.156738	12.626555
799.108826	12.624478
799.060852	41.022808
799.012878	37.860977
798.964966	44.163876
798.916992	50.464699
798.869019	47.302876
798.821045	28.377056
798.773071	31.524876
798.725098	31.519690
798.677124	47.271755
798.629150	47.263981
798.581116	34.654549
798.533203	44.098534
798.485168	37.792522
798.437256	47.232883
798.389221	53.521793
798.341248	28.330404
798.293274	9.441915
798.245300	56.642162
798.197266	69.217918
798.149292	72.352280
798.101257	56.614204
798.053223	15.723579
798.005310	28.297785
797.957275	22.005766
797.909241	47.147453
797.861206	31.426462
797.813232	-6.284258
797.765198	28.274506
797.717224	40.834229
797.669189	65.952126
797.621155	21.980423
797.573120	37.674522
797.525146	25.112213
797.477112	59.631691
797.429016	59.621872
797.381042	9.412430
797.333008	31.369600
797.284912	40.773766
797.236877	43.902981
797.188843	31.354107
797.140808	21.944262
797.092773	37.612537
797.044800	40.740208
796.996704	56.400227
796.948608	31.328300
796.900635	43.852398
796.852539	37.581577
796.804504	31.312824
796.756409	21.915367
796.708374	34.432762
796.660339	65.724442
796.612244	71.972054
796.564209	50.059269
796.516113	56.307400
796.468018	62.553474
796.419983	40.653057
796.371887	59.406219
796.323792	21.882896
796.275757	46.884197
796.227600	37.501175
796.179504	56.242496
796.131470	18.744410
796.083374	49.976856
796.035278	37.476467
795.987183	28.102718
795.939087	46.830143
795.891052	31.214952
795.842896	28.088827
795.794800	31.204664
795.746643	40.559376
795.698547	49.911007
795.650452	37.427086
795.602356	43.657734
795.554260	40.532642
795.506165	46.760727
795.458069	40.519283
795.409912	24.930832
795.361816	49.853447
795.313660	24.922613
795.265564	40.492569
795.217407	46.714493
795.169312	21.796503
795.121216	43.585819
795.073059	31.127594
795.024902	37.346954
794.976746	56.011192
794.928589	3.111220
794.880493	40.439190
794.832336	40.432518
794.784180	31.096809
794.736023	9.327504
794.687866	40.412518
794.639709	62.162853
794.591553	52.829708
794.543396	27.964056
794.495239	-6.213210
794.447144	34.167019
794.398926	18.633480
794.350830	43.470951
794.302612	52.777447
794.254456	37.248524
794.206238	52.760033
794.158081	34.133213
794.109924	46.537613
794.061707	77.549889
794.013550	21.710386
793.965393	43.413609
793.917236	24.803682
793.869019	34.099438
793.820862	27.894936
793.772583	27.890331
793.724426	37.180973
793.676270	15.489515
793.628052	52.655663
793.579895	55.743851
793.531677	46.445541
793.483459	46.437878
793.435242	34.048820
793.387085	46.422550
793.338806	37.131908
793.290649	34.031963
793.242371	24.746433
793.194214	27.835142
793.145996	18.553698
793.097778	49.468361
793.049561	52.551456
793.001343	55.633530
792.953064	61.804829
792.904846	49.435699
792.856628	49.427536
792.808411	52.508087
792.760193	27.793808
792.711914	37.052292
792.663696	46.307716
792.615417	18.520027
792.567200	52.464745
792.518982	18.513910
792.470703	30.851421
792.422485	49.354122
792.374207	33.925354
792.325928	37.003365
792.277710	49.329670
792.229492	43.156330
792.181152	49.313374
792.132935	36.978920
792.084656	30.810677
792.036377	36.966705
791.988098	24.640398
791.939819	52.352196
791.891602	46.185482
791.843323	73.884560
791.795044	27.702131
791.746765	40.007580
791.698486	12.307990
791.650208	49.223827
791.601929	12.303923
791.553650	36.905670
791.505371	55.349354
791.457031	33.819016
791.408752	52.257114
791.360474	49.175037
791.312195	55.312771
791.263916	27.651815
791.215576	39.934910
791.167297	42.999714
791.118958	42.992607
791.070679	24.563143
791.022339	46.048279
790.974060	49.110046
790.925720	46.033054
790.877441	46.025444
790.829102	36.814266
790.780823	52.144924
790.732422	52.136303
790.684143	52.127682
790.635803	9.197481
790.587524	30.653202
790.539185	61.296265
790.490845	24.514452
790.442505	55.148396
790.394104	3.063293
790.345825	36.753437
790.297424	27.560518
790.249146	45.926598
790.200745	9.183801
790.152405	15.303802
790.104065	27.542288
790.055725	61.194958
790.007385	21.414692
789.958984	12.234942
789.910706	42.815216
789.862305	42.808132
789.813904	58.087139
789.765564	51.964104
789.717224	55.011711
789.668823	30.557005
789.620483	33.607143
789.572083	51.929722
789.523682	39.704391
789.475342	15.268393
789.427002	39.691250
789.378601	36.632015
789.330200	45.782440
789.281799	45.774864
789.233459	12.204610
789.185059	39.658417
789.136658	42.701996
789.088257	21.347464
789.039856	24.393063
788.991455	54.875305
788.943115	15.240617
788.894714	27.428570
788.846252	27.424028
788.797913	39.605927
788.749451	36.553265
788.701050	30.456011
788.652649	54.811741
788.604248	45.668888
788.555847	15.220442
788.507385	45.653763
788.458984	54.775444
788.410522	36.510918
788.362122	15.210362
788.313660	30.415688
788.265259	18.246389
788.216858	30.405613
788.168396	45.600864
788.119995	45.593311
788.071533	54.702911
788.023071	48.616756
787.974670	42.532616
787.926208	30.375406
787.877747	51.629639
787.829346	57.694153
787.780884	45.540470
787.732422	39.461868
787.684021	33.385277
787.635559	18.207134
787.587097	21.238138
787.538635	33.368687
787.490173	42.462200
787.441711	36.390141
787.393250	42.448128
787.344788	30.315067
787.296326	48.496067
787.247803	30.305019
787.199341	57.569992
787.150879	45.442463
787.102417	57.550911
787.053894	33.313427
787.005432	27.251921
786.956909	60.549786
786.908508	39.350838
786.859985	24.211885
786.811523	51.441727
786.763000	24.203857
786.714478	33.274788
786.666016	33.269272
786.617493	18.143866
786.569031	57.446049
786.520508	57.436523
786.471985	42.314632
786.423523	27.197752
786.375000	33.236183
786.326477	24.167763
786.277954	30.204693
786.229431	27.179714
786.180908	33.214142
786.132446	24.151733
786.083923	51.313919
786.035339	9.053896
785.986816	45.261971
785.938354	36.203571
785.889771	27.148172
785.841248	39.207523
785.792725	57.293797
785.744202	33.164589
785.695679	48.231400
785.647095	21.097736
785.598572	45.201935
785.550049	30.129622
785.501465	33.137085
785.452942	48.191399
785.404358	48.183403
785.355835	57.208294
785.307251	21.073242
785.258728	15.049818
785.210205	39.123032
785.161621	42.125504
785.113037	33.093117
785.064453	42.111523
785.015930	45.112000
784.967346	36.083607
784.918762	39.084087
784.870239	21.041784
784.821594	27.049231
784.773071	12.019884
784.724487	48.071556
784.675903	12.015894
784.627319	42.048645
784.578735	48.047615
784.530151	60.049549
784.481567	39.025726
784.432983	21.010363
784.384399	6.001964
784.335754	33.005318
784.287170	50.999748
784.238586	23.995897
784.190002	50.982811
784.141357	38.980381
784.092773	29.979929
784.044128	17.984970
783.995605	38.960960
783.946960	29.964991
783.898376	29.960014
783.849670	23.964029
783.801086	26.955055
783.752502	23.956068
783.703857	8.982033
783.655212	26.941622
783.606628	32.923180
783.558044	26.932671
783.509338	65.824478
783.460693	50.855915
783.412109	47.856438
783.363464	29.905304
783.314819	11.960134
783.266174	50.822121
783.217529	38.857517
783.168884	35.862514
783.120300	23.904369
783.071594	44.813244
783.022949	32.857582
782.974304	23.892452
782.925659	65.693321
782.877014	41.797890
782.828369	53.731213
782.779663	11.938284
782.731018	35.808899
782.682373	53.704418
782.633667	26.847744
782.585022	56.669147
782.536377	41.749271
782.487671	68.576683
782.439026	17.886595
782.390320	47.689655
782.341614	53.641941
782.292969	50.653408
782.244263	59.582333
782.195557	41.700695
782.146912	56.584389
782.098206	32.753937
782.049500	23.817081
782.000854	29.766399
781.952087	44.642174
781.903442	44.634747
781.854736	50.577633
781.806030	23.797279
781.757324	41.638309
781.708618	41.631382
781.659912	41.624454
781.611206	26.754126
781.562500	23.777489
781.513794	20.801842
781.465027	47.539154
781.416382	59.414055
781.367615	32.672291
781.318909	50.485138
781.270203	50.476738
781.221436	53.437061
781.172791	17.809389
781.124023	53.419277
781.075256	14.836218
781.026550	41.534496
780.977844	38.561325
780.929077	44.486431
780.880310	38.548489
780.831604	8.894324
780.782837	50.392780
780.734131	29.637877
780.685364	17.779766
780.636597	53.330414
780.587891	23.698460
780.539062	50.350842
780.490356	41.458496
780.441589	32.569107
780.392822	11.841340
780.344055	32.558262
780.295288	50.308933
780.246521	32.547417
780.197815	29.583633
780.148987	5.915741
780.100281	56.190182
780.051453	41.396397
780.002686	26.607536
779.953918	38.426704
779.905151	14.777040
779.856384	35.458988
779.807556	38.407505
779.758789	29.539312
779.710022	29.534389
779.661194	44.294205
779.612427	47.239277
779.563599	41.327480
779.514832	11.805884
779.466003	17.705875
779.417236	41.306824
779.368408	35.399948
779.319580	44.242561
779.270813	26.541113
779.221985	14.742605
779.173218	11.792119
779.124390	53.055691
779.075562	23.576376
779.026733	23.572447
778.977966	47.137035
778.929138	11.782294
778.880310	38.286072
778.831482	38.279690
778.782593	55.937912
778.733826	38.266926
778.684937	38.260548
778.636108	35.311539
778.587341	29.421375
778.538513	32.358116
778.489624	44.117348
778.440796	20.584661
778.391968	47.042809
778.343079	55.854019
778.294250	38.209534
778.245422	14.693523
778.196594	64.640724
778.147705	41.128143
778.098816	35.246815
778.049988	23.493956
778.001099	2.936255
777.952271	35.229179
777.903381	32.288025
777.854553	44.021782
777.805664	46.948730
777.756836	46.940899
777.707886	52.799702
777.659058	46.925236
777.610168	26.391041
777.561279	41.045879
777.512451	49.833111
777.463562	26.377832
777.414673	43.955715
777.365784	67.387520
777.316895	58.588062
777.268005	43.933712
777.219116	2.928425
777.170227	17.567619
777.121277	32.201923
777.072388	26.342632
777.023560	35.117645
776.974670	35.111782
776.925720	46.807896
776.876831	40.950069
776.827881	40.943233
776.778992	49.708485
776.730103	17.541241
776.681152	14.615260
776.632263	35.070766
776.583313	40.909061
776.534424	43.823818
776.485535	32.132099
776.436584	61.332855
776.387695	67.162865
776.338684	23.357094
776.289795	32.110641
776.240906	58.373230
776.191956	23.345392
776.143005	17.506119
776.094055	46.675186
776.045105	23.333694
775.996216	29.162247
775.947266	67.061958
775.898315	58.305008
775.849365	26.232868
775.800415	46.628418
775.751465	46.620628
775.702515	32.046326
775.653564	32.040970
775.604553	43.684933
775.555664	66.972366
775.506653	66.961182
775.457703	37.841297
775.408752	17.462296
775.359802	46.558338
775.310852	26.184687
775.261841	0.000000
775.212891	34.901245
775.163879	37.803364
775.114929	43.611973
775.065918	61.046555
775.016968	37.784409
774.968018	43.590103
774.918945	46.488338
774.869995	23.240282
774.820984	31.950045
774.772034	26.136576
774.723022	34.842941
774.674011	46.449486
774.625061	43.539108
774.576050	11.608487
774.527039	29.016365
774.478027	29.011513
774.429016	14.503330
774.380005	26.101627
774.330994	23.197567
774.281982	28.992107
774.232971	23.189806
774.183960	34.778889
774.134949	34.773071
774.085876	34.767254
774.036926	52.142159
773.987915	17.377811
773.938904	26.062355
773.889832	14.476664
773.840820	43.422726
773.791809	37.626732
773.742737	31.832676
773.693665	23.147163
773.644653	26.036200
773.595581	37.601551
773.546570	23.135544
773.497559	20.240211
773.448486	52.037548
773.399475	26.014420
773.350403	43.350109
773.301331	2.889524
773.252319	14.445199
773.203247	31.774117
773.154236	72.201813
773.105103	57.751781
773.056030	51.967899
773.007019	28.866222
772.957947	23.089111
772.908875	37.513523
772.859802	34.622070
772.810730	25.962204
772.761658	20.189444
772.712585	46.139572
772.663513	43.248604
772.614441	40.358604
772.565369	46.116394
772.516296	48.990459
772.467163	28.813091
772.418091	23.046612
772.368958	43.205158
772.319946	23.038891
772.270813	25.914412
772.221741	25.910069
772.172668	31.662558
772.123535	31.657251
772.074402	57.548996
772.025330	54.662388
771.976257	60.406197
771.927124	43.140053
771.877991	37.381783
771.828918	28.750399
771.779785	17.247349
771.730652	25.866686
771.681580	34.483135
771.632446	28.731129
771.583313	43.089470
771.534180	28.721498
771.485046	43.075027
771.435974	43.067806
771.386780	34.448471
771.337708	45.923592
771.288513	34.436920
771.239380	48.777458
771.190247	34.425373
771.141113	17.209801
771.091980	28.678192
771.042908	57.346767
770.993713	25.801718
770.944519	37.262897
770.895447	5.731792
770.846313	28.654156
770.797119	37.244156
770.747925	40.102364
770.698792	34.367687
770.649658	17.180962
770.600525	42.945202
770.551331	22.900265
770.502197	37.206688
770.453003	34.338875
770.403870	40.055298
770.354675	34.327354
770.305481	51.482391
770.256287	51.473755
770.207153	20.014212
770.157959	22.869547
770.108765	25.723923
770.059631	45.723747
770.010437	28.572546
769.961243	34.281300
769.912048	28.562956
769.862854	45.693062
769.813660	45.685390
769.764465	39.968006
769.715271	34.252541
769.666077	37.100693
769.616882	31.387625
769.567688	48.500004
769.518494	42.786938
769.469238	51.335705
769.420044	19.960533
769.370850	54.169495
769.321594	42.758209
769.272461	34.200825
769.223206	28.495901
769.173950	42.736675
769.124817	48.426765
769.075562	28.481548
769.026306	45.562824
768.977112	31.319181
768.927856	28.467201
768.878662	28.462420
768.829407	17.074583
768.780212	39.834003
768.730957	54.051350
768.681763	31.287630
768.632446	51.189342
768.583252	59.710865
768.533997	22.743174
768.484741	25.581772
768.435486	42.629124
768.386230	45.463425
768.337036	48.296772
768.287781	56.810184
768.238525	31.240353
768.189209	36.914211
768.140015	34.068932
768.090759	39.740406
768.041443	48.248096
767.992188	45.402340
767.942932	19.860186
767.893677	25.530231
767.844421	51.051884
767.795105	53.879040
767.745850	28.352623
767.696594	19.843498
767.647278	39.680325
767.598022	42.507488
767.548767	17.000135
767.499451	28.328796
767.450134	33.988838
767.400879	48.142761
767.351562	56.629017
767.302307	25.478773
767.252991	39.626980
767.203735	22.640181
767.154419	42.443199
767.105103	19.803495
767.055786	19.800165
767.006470	33.937431
766.957214	53.725227
766.907837	48.061852
766.858582	36.746998
766.809265	45.219467
766.759949	36.734634
766.710632	33.903191
766.661316	8.474372
766.612000	25.418837
766.562683	42.357601
766.513367	19.763554
766.464050	28.228897
766.414673	36.691391
766.365356	2.821940
766.316040	50.786366
766.266724	14.104950
766.217346	45.128242
766.168030	36.660526
766.118713	45.113052
766.069336	33.829094
766.020020	53.553719
765.970703	36.635849
765.921326	30.994345
765.871948	42.257900
765.822632	25.350471
765.773254	36.611183
765.723938	28.157707
765.674561	45.044746
765.625244	39.407516
765.575867	47.843925
765.526489	61.905243
765.477112	19.693806
765.427795	50.632687
765.378418	47.811707
765.329041	44.991673
765.279663	8.434518
765.230286	33.732388
765.180908	33.726707
765.131531	19.670599
765.082153	14.048060
765.032715	39.327942
764.983337	61.790642
764.934021	28.081924
764.884644	30.884911
764.835205	33.686954
764.785828	28.067732
764.736450	28.063002
764.687073	14.029137
764.637634	22.442837
764.588257	30.853699
764.538818	19.630863
764.489441	53.274792
764.440063	8.410392
764.390625	25.226921
764.341187	30.827707
764.291809	33.624557
764.242432	42.023613
764.192932	39.215427
764.143555	36.408184
764.094116	36.402046
764.044739	8.399056
763.995300	39.188988
763.945862	22.389931
763.896484	30.780964
763.847046	19.584583
763.797607	33.567909
763.748169	55.937084
763.698730	30.760208
763.649292	55.918217
763.599854	47.522469
763.550415	39.129551
763.500977	39.122952
763.451538	19.558176
763.402100	39.109753
763.352661	39.103157
763.303162	11.170445
763.253723	47.466385
763.204285	25.125023
763.154846	25.120785
763.105408	53.023819
763.055908	53.014874
763.006470	16.738714
762.957031	33.471779
762.907532	22.310755
762.858032	36.248856
762.808594	47.394352
762.759094	47.386353
762.709656	36.230507
762.660156	19.505442
762.610718	58.506451
762.561218	25.069960
762.511780	47.346375
762.462280	33.415329
762.412781	50.114532
762.363342	13.918353
762.313843	41.748013
762.264343	38.958233
762.214783	19.475826
762.165344	22.254330
762.115845	52.845108
762.066345	30.589371
762.016846	22.243057
761.967346	25.019215
761.917847	47.250534
761.868286	50.021530
761.818848	47.234577
761.769287	22.224281
761.719788	16.665396
761.670288	38.879356
761.620789	19.436394
761.571228	49.970856
761.521729	47.186726
761.472229	27.752207
761.422668	27.747519
761.373169	63.808510
761.323608	41.607216
761.274109	30.506802
761.224609	47.138908
761.175049	22.179268
761.125488	47.122978
761.075989	13.857357
761.026489	63.733070
760.976929	38.787487
760.927307	24.930599
760.877808	58.161564
760.828308	24.922171
760.778687	16.611973
760.729187	30.450134
760.679626	44.283619
760.630066	24.905323
760.580566	38.735065
760.530945	52.560127
760.481384	52.551243
760.431824	13.826936
760.382263	38.708874
760.332703	16.586712
760.283142	46.987740
760.233521	27.635172
760.184021	41.445747
760.134460	16.575495
760.084839	44.193844
760.035278	38.663074
759.985657	27.611811
759.936096	44.171421
759.886536	33.122963
759.836975	16.558680
759.787354	74.501457
759.737732	30.347309
759.688232	38.617313
759.638611	49.642429
759.588989	30.331907
759.539368	38.597713
759.489807	27.565130
759.440186	13.780233
759.390564	44.089283
759.341003	46.836937
759.291443	8.263943
759.241760	19.279270
759.192200	2.753715
759.142578	22.025993
759.092957	30.280615
759.043335	5.504634
758.993713	38.525917
758.944092	33.016624
758.894470	41.263794
758.844849	49.508171
758.795227	19.249918
758.745667	30.244749
758.695984	30.239628
758.646362	21.988731
758.596741	21.985008
758.547058	32.971928
758.497437	19.230368
758.447815	16.480381
758.398193	24.716385
758.348511	27.457998
758.298889	54.906693
758.249268	38.428177
758.199646	13.722024
758.149963	41.159096
758.100281	10.973900
758.050659	54.860203
758.000977	49.365818
757.951355	19.194567
757.901672	24.674545
757.851990	52.081882
757.802368	41.110310
757.752686	46.583786
757.703003	46.575893
757.653320	60.264469
757.603699	46.560108
757.554016	35.598755
757.504333	35.592720
757.454651	38.324127
757.404968	21.895788
757.355286	32.838116
757.305603	21.888365
757.255920	49.240475
757.206238	43.761890
757.156616	35.550507
757.106873	38.278671
757.057190	19.136089
757.007446	54.665272
756.957764	27.328001
756.908081	32.788040
756.858398	21.854988
756.808716	32.776920
756.758972	24.578522
756.709290	13.652419
756.659607	32.760246
756.609924	35.484249
756.560120	21.832756
756.510437	21.829054
756.460693	21.825350
756.411072	27.277060
756.361328	29.999676
756.311584	43.628487
756.261902	21.810543
756.212097	40.887829
756.162415	40.880894
756.112671	27.249304
756.062927	21.795744
756.013184	59.928123
755.963501	27.235434
755.913757	49.015461
755.864014	19.058332
755.814270	54.443138
755.764587	48.990505
755.714844	48.982189
755.665100	27.207708
755.615356	21.762472
755.565552	29.918320
755.515808	5.438771
755.466064	13.594619
755.416321	38.058472
755.366577	24.462006
755.316833	21.740313
755.267029	29.887854
755.217285	38.032627
755.167542	43.458481
755.117737	24.441242
755.067993	35.298023
755.018188	48.865883
754.968445	46.143272
754.918701	46.135437
754.868896	35.274048
754.819092	27.129272
754.769348	46.111931
754.719543	48.816101
754.669739	29.826994
754.619995	16.266506
754.570190	37.948730
754.520386	56.913425
754.470642	62.323158
754.420837	40.638630
754.371033	37.922943
754.321228	43.333141
754.271484	32.494335
754.221619	21.659206
754.171875	24.362467
754.122070	56.836094
754.072205	62.238476
754.022400	0.000000
753.972595	37.871410
753.922852	16.227846
753.872986	43.266899
753.823181	59.481869
753.773376	29.735878
753.723572	37.839230
753.673706	40.535137
753.623901	32.422596
753.574097	70.237015
753.524292	45.916389
753.474426	37.807068
753.424561	37.800640
753.374756	48.592556
753.324951	24.292145
753.275085	29.685350
753.225281	40.473137
753.175415	43.164001
753.125610	24.275621
753.075745	45.846149
753.025879	24.267363
752.976074	21.567318
752.926208	26.954561
752.876343	13.474988
752.826477	43.112625
752.776672	13.470403
752.726807	29.629843
752.676941	43.090618
752.627075	24.234348
752.577209	29.614717
752.527344	34.993256
752.477539	53.826614
752.427673	45.744835
752.377808	18.832903
752.327881	48.419220
752.278015	32.273983
752.228149	48.402737
752.178284	43.017330
752.128357	21.505003
752.078491	45.690350
752.028625	37.620941
751.978760	21.494019
751.928833	24.176655
751.878967	37.601723
751.829102	42.966080
751.779175	48.328609
751.729309	45.635914
751.679382	37.576115
751.629456	26.835510
751.579590	32.197128
751.529663	37.556919
751.479797	5.364360
751.429871	37.544125
751.379944	37.537727
751.330078	29.488903
751.280212	10.721411
751.230225	34.838646
751.180298	21.435514
751.130371	40.184742
751.080505	34.820843
751.030579	5.356140
750.980652	45.519428
750.930725	58.897457
750.880859	42.827213
750.830872	24.086201
750.780945	26.757885
750.731018	32.103989
750.681091	32.098515
750.631165	21.395363
750.581177	24.065680
750.531311	37.429119
750.481384	29.403580
750.431396	29.398565
750.381409	21.377131
750.331482	40.075283
750.281616	29.383530
750.231628	42.732391
750.181641	34.714146
750.131714	32.038364
750.081787	26.694082
750.031799	24.020576
749.981812	24.016479
749.931885	40.020638
749.881958	37.346226
749.831970	40.006985
749.781982	24.000095
749.732056	21.329779
749.682068	31.989210
749.632080	7.995938
749.582092	18.654005
749.532104	37.301647
749.482178	53.278973
749.432190	29.298433
749.382202	23.967356
749.332214	29.288435
749.282227	34.607697
749.232239	53.233524
749.182251	31.934662
749.132263	26.607677
749.082275	53.206268
749.032288	26.598593
748.982239	53.188107
748.932312	29.248465
748.882263	5.316995
748.832275	18.606304
748.782288	37.206253
748.732239	23.914223
748.682251	26.566820
748.632263	39.843426
748.582214	29.213522
748.532227	26.553213
748.482178	23.893810
748.432190	34.507385
748.382141	34.501492
748.332153	31.842091
748.282104	39.795815
748.232117	42.441620
748.182068	29.173628
748.132080	29.168644
748.082031	53.024837
748.031982	26.507889
747.981934	42.405376
747.931885	42.398129
747.881836	42.390884
747.831848	31.787731
747.781799	39.727875
747.731812	29.128796
747.681702	34.419056
747.631653	50.296177
747.581604	34.407291
747.531555	37.047672
747.481567	37.041340
747.431458	37.035007
747.381409	26.449055
747.331360	31.733440
747.281311	47.592022
747.231201	31.722589
747.181152	44.932652
747.131104	34.354389
747.081055	18.495354
747.030945	18.492191
746.980957	50.184505
746.930847	26.408381
746.880798	31.684637
746.830688	7.919805
746.780640	36.952766
746.730530	29.029350
746.680420	31.662966
746.630310	34.295677
746.580261	23.739100
746.530212	44.832851
746.480103	18.457428
746.429993	39.544865
746.379883	47.445717
746.329834	36.895908
746.279724	44.794510
746.229614	21.076162
746.179504	23.706625
746.129456	31.603424
746.079346	15.799007
746.029236	34.225323
745.979126	26.322666
745.929016	44.740871
745.878906	26.313656
745.828796	23.678236
745.778687	31.565577
745.728577	7.890043
745.678406	36.813896
745.628296	42.065823
745.578186	39.429955
745.528076	34.166779
745.477966	23.649872
745.427795	28.900450
745.377686	44.656685
745.327576	23.637724
745.277405	42.015423
745.227295	23.629629
745.177124	34.125839
745.127014	28.870764
745.076904	44.610809
745.026733	26.237158
744.976562	26.232664
744.926453	20.982536
744.876282	47.202618
744.826111	23.597265
744.775940	20.971752
744.725830	15.726119
744.675659	26.205708
744.625488	31.441460
744.575378	41.914764
744.525208	36.669132
744.475037	13.093874
744.424866	31.419912
744.374695	47.121788
744.324524	23.556856
744.274353	2.616980
744.224182	44.481030
744.174011	31.392992
744.123840	15.693805
744.073669	23.536671
744.023499	39.221058
743.973267	23.528601
743.923157	47.049133
743.872925	36.587494
743.822754	41.807110
743.772583	31.349955
743.722351	23.508434
743.672180	39.174004
743.622009	49.611893
743.571777	20.885635
743.521606	28.712822
743.471375	15.658853
743.421204	41.749779
743.370972	31.306961
743.320801	26.084660
743.270569	41.728294
743.220398	26.075708
743.170166	28.678358
743.119995	54.740196
743.069702	49.518349
743.019531	33.875160
742.969299	23.448009
742.919067	44.283081
742.868835	31.253283
742.818604	33.851910
742.768433	10.414185
742.718201	52.061985
742.667969	36.437134
742.617737	18.215439
742.567505	36.424625
742.517273	26.013123
742.467041	7.802597
742.416809	44.207123
742.366577	23.399752
742.316345	28.594786
742.266052	25.990797
742.215820	28.584967
742.165588	20.785496
742.115356	49.357075
742.065063	18.181063
742.014832	12.984242
741.964600	36.349636
741.914307	23.363607
741.864075	46.719189
741.813782	59.686485
741.763489	20.756950
741.713257	31.130075
741.662964	28.531000
741.612732	25.932816
741.562439	15.557016
741.512207	20.739124
741.461914	25.919451
741.411682	23.323496
741.361389	49.230030
741.311096	15.543653
741.260803	31.081963
741.210510	25.897184
741.160278	18.124912
741.109985	12.944140
741.059692	41.414131
741.009399	18.115566
740.959106	25.874931
740.908813	23.283434
740.858521	41.385654
740.808228	46.550858
740.757935	5.171428
740.707642	36.193771
740.657349	20.678598
740.606995	25.843803
740.556702	36.175102
740.506409	38.752369
740.456116	20.664375
740.405762	41.321644
740.355469	43.896694
740.305176	33.562286
740.254822	43.881592
740.204529	46.454868
740.154175	38.705730
740.103882	23.219442
740.053589	46.430893
740.003235	25.790503
739.952942	43.836311
739.902588	38.672440
739.852295	25.777189
739.801941	48.968231
739.751587	51.536636
739.701233	25.763884
739.650879	38.639172
739.600586	25.755014
739.550232	30.900696
739.499878	25.746147
739.449524	36.038403
739.399170	33.458469
739.348816	20.586281
739.298523	46.311157
739.248108	25.723991
739.197815	43.723255
739.147461	48.858753
739.097046	12.855352
739.046692	51.412552
738.996399	15.421109
738.945984	38.546135
738.895630	38.539494
738.845276	59.083710
738.794861	35.957802
738.744507	20.543776
738.694153	38.512943
738.643738	56.475922
738.593384	35.933029
738.543030	30.794434
738.492615	12.828803
738.442261	17.957230
738.391846	28.213640
738.341492	10.257738
738.291077	41.023880
738.240662	25.635506
738.190369	35.883522
738.139954	10.250668
738.089539	15.373351
738.039124	48.673889
737.988770	40.981472
737.938354	10.243602
737.887939	17.923212
737.837524	28.160192
737.787109	0.000000
737.736755	17.913942
737.686340	38.380402
737.635925	15.349513
737.585510	25.578110
737.535095	46.032658
737.484680	23.012360
737.434265	25.564878
737.383850	15.336282
737.333374	25.556061
737.282959	30.661982
737.232544	22.992519
737.182129	51.085674
737.131714	45.969173
737.081299	15.320415
737.030823	17.870733
736.980408	35.735298
736.929993	28.072889
736.879517	30.619686
736.829102	30.614403
736.778625	43.362919
736.728210	12.751598
736.677795	28.048676
736.627319	22.944954
736.576904	68.822983
736.526428	38.228390
736.475952	45.866150
736.425537	25.476795
736.375061	35.661354
736.324585	25.467999
736.274170	63.659004
736.223694	33.096966
736.173218	7.636443
736.122803	30.540497
736.072266	43.258232
736.021851	22.897461
735.971375	43.243290
735.920898	25.432837
735.870361	53.399731
735.819946	35.593674
735.769470	30.503592
735.718994	68.621223
735.668518	35.575230
735.618042	25.406488
735.567566	48.263988
735.517029	38.096565
735.466553	38.089981
735.416077	22.850040
735.365540	27.923002
735.315063	43.146271
735.264587	38.063660
735.214111	22.834249
735.163635	25.367002
735.113098	5.072524
735.062622	38.037354
735.012146	35.495392
734.961609	22.814522
734.911133	30.414104
734.860596	17.738493
734.810059	5.067265
734.759521	25.331944
734.709045	20.262051
734.658508	27.855501
734.608032	27.850685
734.557495	37.971638
734.506958	17.717033
734.456421	63.264179
734.405884	27.831423
734.355408	30.356302
734.304871	32.880306
734.254333	25.288168
734.203796	27.812172
734.153259	35.391186
734.102722	20.220036
734.052185	22.743605
734.001648	45.479340
733.951111	17.683350
733.900574	32.834824
733.850037	10.101274
733.799500	22.723934
733.748962	25.244448
733.698364	7.572023
733.647827	25.235710
733.597229	17.661940
733.546692	37.840462
733.496155	25.222607
733.445618	35.305538
733.395020	40.342201
733.344482	22.688559
733.293884	37.807720
733.243347	17.640547
733.192810	30.235703
733.142212	15.115233
733.091614	27.706463
733.041077	30.219997
732.990479	42.804249
732.939880	35.244453
732.889343	27.687273
732.838745	22.649300
732.788147	20.129225
732.737610	32.704323
732.687012	32.698658
732.636414	15.089073
732.585815	45.259377
732.535217	20.111794
732.484680	17.594770
732.434021	50.262062
732.383423	42.715351
732.332825	25.122322
732.282227	10.047188
732.231628	55.249954
732.181030	10.043705
732.130432	20.083929
732.079834	40.160896
732.029175	35.134693
731.978577	22.582672
731.927979	35.122513
731.877380	37.624741
731.826782	40.126099
731.776184	27.581909
731.725525	50.140232
731.674866	32.585499
731.624268	37.592133
731.573608	15.034245
731.523071	20.042185
731.472412	2.504838
731.421753	25.044041
731.371155	40.063515
731.320496	27.538891
731.269897	27.534113
731.219238	27.529337
731.168579	45.040192
731.117981	25.017986
731.067322	27.515011
731.016663	12.504653
730.966003	30.005960
730.915344	30.000753
730.864685	17.497404
730.814087	42.486320
730.763428	17.491331
730.712769	52.464886
730.662109	42.464203
730.611450	22.477146
730.560791	37.455406
730.510132	49.931873
730.459473	29.953924
730.408813	37.435905
730.358154	22.457644
730.307434	22.453745
730.256775	9.977710
730.206116	29.927931
730.155457	27.429173
730.104797	39.890049
730.054077	12.463476
730.003418	27.414885
729.952698	22.426464
729.902039	37.370949
729.851379	47.328316
729.800659	17.433718
729.750000	19.920788
729.699280	34.855324
729.648621	44.806202
729.597900	49.776020
729.547241	42.302265
729.496521	34.831108
729.445862	37.312561
729.395142	37.306076
729.344421	22.379755
729.293701	32.320694
729.242981	37.286629
729.192322	22.368090
729.141541	19.879290
729.090820	22.360313
729.040161	29.808569
728.989441	34.770618
728.938721	34.764576
728.888062	44.689541
728.837280	14.893923
728.786560	42.192112
728.735840	37.221863
728.685120	32.253338
728.634338	39.689510
728.583679	12.400816
728.532898	42.155441
728.482178	54.544613
728.431458	27.267563
728.380737	39.655010
728.330017	54.516155
728.279236	29.730911
728.228516	22.294304
728.177795	24.767139
728.127014	17.333982
728.076233	44.565342
728.025513	39.606743
727.974731	24.749908
727.924011	34.643841
727.873291	39.586071
727.822510	24.736988
727.771790	17.312880
727.721008	39.565407
727.670288	17.306852
727.619507	24.719772
727.568726	24.715469
727.517944	37.066750
727.467163	12.353432
727.416382	17.291794
727.365601	34.577568
727.314880	24.693962
727.264099	22.220695
727.213318	39.496582
727.162537	37.021595
727.111755	29.612120
727.060974	17.270727
727.010193	22.201355
726.959351	24.663876
726.908630	41.921284
726.857849	36.982925
726.807007	22.185890
726.756226	19.717356
726.705444	64.070244
726.654663	36.957161
726.603882	44.340866
726.553040	34.481331
726.502258	39.400368
726.451416	46.779785
726.400635	12.308325
726.349854	27.073595
726.299011	34.451298
726.248230	41.826427
726.197388	46.739037
726.146606	24.595205
726.095764	41.804558
726.044922	49.173260
725.994141	41.789986
725.943359	44.240505
725.892517	2.457377
725.841675	19.655590
725.790833	27.021725
725.739990	29.473104
725.689209	31.923630
725.638367	34.373299
725.587524	39.276917
725.536682	39.270065
725.485840	31.901365
725.434998	39.256371
725.384216	24.530951
725.333313	53.958679
725.282532	31.879110
725.231689	19.614492
725.180847	31.867989
725.130005	39.215294
725.079102	29.406340
725.028259	41.651711
724.977417	36.745098
724.926575	14.695474
724.875671	36.732273
724.824829	17.138737
724.773926	41.615379
724.723145	41.608116
724.672241	22.023981
724.621399	31.806864
724.570496	31.801311
724.519653	36.687416
724.468811	34.235607
724.417908	41.564552
724.367004	34.223656
724.316162	41.550037
724.265259	9.774773
724.214417	24.432663
724.163513	36.642593
724.112671	41.521019
724.061768	21.977877
724.010864	46.389637
723.960022	19.529068
723.909058	14.644241
723.858215	58.566734
723.807312	29.278252
723.756409	19.515425
723.705505	31.707024
723.654602	43.894360
723.603699	24.381495
723.552795	39.003574
723.501892	34.122166
723.451050	26.805586
723.400085	17.055119
723.349182	14.616118
723.298279	17.049158
723.247375	19.481346
723.196411	7.304228
723.145508	26.777487
723.094604	29.206697
723.043701	19.467728
722.992798	41.361687
722.941833	36.489223
722.890930	14.593138
722.839966	55.930580
722.789062	19.450712
722.738159	48.618279
722.687195	14.582932
722.636230	41.311081
722.585388	34.014938
722.534424	14.575281
722.483459	21.859098
722.432556	26.712002
722.381592	9.711756
722.330688	26.702656
722.279724	0.000000
722.228760	19.413319
722.177795	31.541122
722.126831	16.980709
722.075867	38.806259
722.024963	33.949532
721.973999	48.490845
721.923035	38.785885
721.872070	55.744953
721.821106	33.925770
721.770142	48.456902
721.719177	33.913895
721.668213	29.063963
721.617249	0.000000
721.566284	41.159531
721.515320	29.048700
721.464294	26.623312
721.413330	38.718037
721.362366	26.613989
721.311401	19.352240
721.260437	21.767456
721.209473	14.509095
721.158447	16.924313
721.107483	14.504013
721.056458	24.169121
721.005493	-2.416489
720.954468	16.912457
720.903564	24.156420
720.852539	4.830438
720.801514	16.903570
720.750549	14.486235
720.699524	4.827899
720.648560	12.067632
720.597534	41.022758
720.546509	14.476083
720.495544	57.894184
720.444519	28.942019
720.393555	19.291296
720.342529	38.575829
720.291504	16.873966
720.240479	40.972450
720.189453	26.506937
720.138428	38.548786
720.087402	33.724274
720.036438	36.126812
719.985352	45.752605
719.934326	7.222829
719.883362	12.035937
719.832275	28.881184
719.781250	26.469774
719.730225	33.682896
719.679199	19.243992
719.628174	24.050770
719.577148	33.665173
719.526123	31.255032
719.475037	-4.807623
719.424011	26.437286
719.372986	36.044521
719.321899	16.817825
719.270874	16.814873
719.219788	40.828953
719.168823	19.210255
719.117737	38.413765
719.066711	45.608337
719.015625	36.000263
718.964539	28.795155
718.913513	40.785976
718.862427	7.196261
718.811401	33.576660
718.760315	26.377029
718.709290	23.974907
718.658142	35.956047
718.607117	33.553082
718.556030	35.943420
718.505005	35.937107
718.453918	31.140022
718.402771	28.739588
718.351746	31.129086
718.300659	33.517742
718.249573	16.755928
718.198486	31.112684
718.147400	40.678669
718.096313	14.354655
718.045227	35.880333
717.994141	45.440437
717.943054	31.085361
717.891968	33.470661
717.840881	23.903414
717.789795	19.119371
717.738708	38.232021
717.687561	35.836220
717.636475	35.829922
717.585388	14.329450
717.534302	38.205147
717.483154	21.486618
717.432007	21.482841
717.380920	35.798439
717.329834	7.158429
717.278687	38.171577
717.227600	11.926520
717.176453	40.543037
717.125366	4.768930
717.074219	28.608551
717.023132	33.370773
716.971985	38.131317
716.920837	30.976246
716.869751	11.911845
716.818604	30.965349
716.767517	30.959902
716.716370	38.097790
716.665222	38.091087
716.614136	23.802742
716.562988	35.697830
716.511841	23.794365
716.460693	28.548214
716.409485	30.921789
716.358398	33.294529
716.307251	35.666431
716.256042	30.905466
716.204895	35.653877
716.153809	45.153629
716.102661	35.641327
716.051453	38.010723
716.000366	7.125755
715.949158	47.496674
715.898010	47.488312
715.846863	7.121992
715.795715	16.615055
715.744507	30.851099
715.693359	40.336639
715.642151	28.467907
715.591003	28.462894
715.539856	37.943840
715.488647	23.710724
715.437500	47.413094
715.386353	28.442844
715.335144	14.218917
715.283936	21.324617
715.232788	33.165783
715.181580	2.368567
715.130432	33.154095
715.079285	33.148254
715.028015	35.509727
714.976868	30.769674
714.925659	63.894981
714.874451	33.124893
714.823303	33.119053
714.772095	44.939365
714.720886	23.648129
714.669678	30.737146
714.618469	30.731728
714.567261	7.090687
714.516052	30.720892
714.464905	47.254578
714.413635	25.985435
714.362427	40.152225
714.311218	37.783669
714.260010	23.610626
714.208801	21.245817
714.157593	30.682989
714.106384	14.158881
714.055176	33.031563
714.003906	35.384716
713.952698	14.151390
713.901489	35.372234
713.850281	14.146397
713.799011	25.930485
713.747803	28.282810
713.696594	49.486183
713.645325	11.780346
713.594055	7.066960
713.542847	32.973328
713.491577	21.193398
713.440369	30.607281
713.389160	21.185917
713.337891	4.707150
713.286621	16.472118
713.235413	44.702141
713.184143	18.818630
713.132874	42.334442
713.081665	7.054495
713.030396	7.053249
712.979126	44.662689
712.927917	35.253792
712.876648	18.798700
712.825378	16.445959
712.774109	28.188091
712.722778	37.577484
712.671570	9.392712
712.620300	42.259735
712.569031	42.252270
712.517761	25.816269
712.466492	30.504747
712.415222	7.038313
712.363953	28.148277
712.312622	16.416927
712.261353	25.793468
712.210083	28.133358
712.158813	18.752256
712.107544	23.436178
712.056213	32.804852
712.004944	18.742315
711.953674	18.739002
711.902344	30.445496
711.851074	14.049283
711.799805	11.705666
711.748474	25.747911
711.697144	21.062748
711.645874	28.078697
711.594604	7.018433
711.543274	28.068768
711.492004	18.709202
711.440674	28.058840
711.389404	23.378231
711.338074	39.735962
711.286743	11.684980
711.235413	35.048740
711.184082	46.723389
711.132812	42.043610
711.081482	32.694798
711.030212	18.679436
710.978821	7.003549
710.927490	37.345654
710.876221	35.005352
710.824829	25.666050
710.773560	27.994371
710.722229	46.649029
710.670898	9.328154
710.619568	13.989755
710.568237	30.305769
710.516907	11.654001
710.465515	32.625427
710.414185	32.619652
710.362854	37.272999
710.311523	34.937248
710.260193	48.903488
710.208862	4.656651
710.157471	37.246605
710.106140	25.602507
710.054810	32.579235
710.003418	30.246790
709.952087	13.957584
709.900757	32.561928
709.849365	25.579838
709.797974	18.600224
709.746643	11.623080
709.695251	20.917837
709.643921	11.618961
709.592529	9.293522
709.541199	18.583750
709.489807	39.483471
709.438477	27.865746
709.387024	34.826008
709.335693	34.819836
709.284302	23.209108
709.232910	39.448490
709.181519	30.161146
709.130188	51.032890
709.078796	6.957797
709.027405	37.101669
708.976013	51.005749
708.924622	27.816385
708.873230	25.493832
708.821838	9.268840
708.770447	39.385586
708.719116	11.581941
708.667664	27.791727
708.616272	41.680199
708.564880	11.575779
708.513489	18.517962
708.462036	11.571672
708.410706	23.139238
708.359253	25.448647
708.307861	34.696541
708.256470	18.501539
708.205017	25.435101
708.153625	2.311872
708.102234	27.737535
708.050781	23.110512
707.999329	18.485126
707.947937	25.412539
707.896545	39.266953
707.845093	27.712927
707.793701	36.944012
707.742249	34.628860
707.690857	34.622711
707.639404	41.539879
707.587952	18.458889
707.536499	27.683418
707.485107	16.145792
707.433655	29.979719
707.382202	29.974394
707.330750	34.579697
707.279297	41.488266
707.227905	29.958424
707.176453	25.344933
707.125061	27.644106
707.073547	32.245728
707.022095	39.148567
706.970642	13.814687
706.919250	11.510194
706.867737	29.921185
706.816345	16.108545
706.764832	29.910551
706.713379	29.905235
706.661926	13.799963
706.610474	22.995852
706.559021	43.684349
706.507507	45.975353
706.456055	9.193436
706.404602	29.873354
706.353149	27.570501
706.301636	32.159866
706.250183	4.593450
706.198730	20.666847
706.147217	16.071356
706.095764	20.659498
706.044250	22.950914
705.992798	34.420250
705.941345	48.179779
705.889832	34.408005
705.838379	29.814966
705.786804	16.051357
705.735352	16.048502
705.683838	32.091293
705.632385	22.918272
705.580872	22.914194
705.529419	20.619106
705.477844	34.359058
705.426331	29.772552
705.374817	27.477465
705.323364	32.051338
705.271851	0.000000
705.220337	48.059891
705.168823	34.322384
705.117310	22.877516
705.065796	32.022820
705.014282	22.869370
704.962830	27.438358
704.911255	22.861227
704.859741	43.428596
704.808228	22.853086
704.756714	45.698032
704.705200	31.982925
704.653625	22.840878
704.602173	27.404171
704.550598	27.399290
704.499084	41.091614
704.447571	25.107067
704.395996	22.820541
704.344482	22.816475
704.292969	34.218613
704.241455	34.212517
704.189880	31.925993
704.138306	20.520195
704.086792	22.796154
704.035278	45.584179
703.983704	25.066832
703.932129	29.619156
703.880615	18.223925
703.829041	34.163765
703.777527	34.157677
703.725952	29.598042
703.674377	11.381832
703.622803	31.863449
703.571289	29.582212
703.519714	36.402386
703.468140	25.022177
703.416565	15.920363
703.364990	25.013252
703.313416	11.367632
703.261902	27.277451
703.210327	27.272585
703.158752	20.450790
703.107178	47.709995
703.055542	47.701485
703.004028	20.439846
702.952393	29.518953
702.900818	15.891985
702.849243	15.889150
702.797668	24.964207
702.746094	31.766958
702.694519	47.641933
702.642883	27.219101
702.591309	18.142828
702.539734	38.546631
702.488098	31.738617
702.436584	13.599835
702.384949	36.259754
702.333374	43.050770
702.281738	36.246807
702.230164	33.975315
702.178528	29.440014
702.126892	27.170544
702.075317	24.901884
702.023682	24.897436
701.972107	20.366991
701.920471	24.888544
701.868835	36.195049
701.817261	31.665012
701.765625	24.875208
701.714050	29.392721
701.662415	27.126894
701.610779	38.422901
701.559204	31.636734
701.507507	31.631081
701.455933	36.143345
701.404297	18.068443
701.352661	31.614124
701.301025	38.381718
701.249390	9.029378
701.197754	29.340233
701.146118	42.874214
701.094482	20.305208
701.042847	22.557308
700.991211	33.829914
700.939575	47.353409
700.887939	27.054253
700.836243	27.049414
700.784607	40.566864
700.732971	38.306297
700.681335	38.299446
700.629700	13.515034
700.578003	9.008411
700.526367	20.265299
700.474670	27.015564
700.423035	38.265202
700.371399	27.005899
700.319702	13.500533
700.268066	35.994980
700.216370	20.243553
700.164734	26.986574
700.113037	38.224140
700.061401	22.480762
