#Wave		#Intensity
899.963257	365.890961
899.920715	311.684906
899.878235	361.315796
899.835815	415.446503
899.793274	356.684845
899.750793	374.684692
899.708252	352.056824
899.665771	374.564453
899.623230	360.968048
899.580688	415.046631
899.538208	410.469391
899.495667	351.774445
899.453186	342.699585
899.410645	374.203949
899.368103	351.605133
899.325623	301.971313
899.283020	423.593262
899.240540	373.963837
899.197998	382.913544
899.155396	310.785828
899.112854	292.722290
899.070312	504.302094
899.027771	414.181671
898.985229	414.115234
898.942688	261.030762
898.900085	472.479858
898.857544	422.914093
898.814941	373.364227
898.772400	409.285461
898.729797	359.753693
898.687256	364.192169
898.644714	364.133728
898.602112	444.980927
898.559570	408.957245
898.516907	372.945129
898.474304	386.363068
898.431763	318.923004
898.389221	350.309906
898.346558	386.177155
898.304016	444.481445
898.261353	363.608307
898.218750	421.897491
898.176147	426.317383
898.133606	372.407013
898.090942	403.750061
898.048340	376.772919
898.005676	363.258484
897.963074	430.459503
897.920471	390.041351
897.877808	372.048737
897.835205	376.470825
897.792542	434.664459
897.749939	304.664337
897.707275	421.086090
897.664673	412.060730
897.622009	443.342041
897.579346	434.315948
897.536743	389.478638
897.494080	411.796417
897.451477	425.156342
897.408752	272.951355
897.366089	433.967773
897.323425	322.068726
897.280823	420.411194
897.238098	397.985046
897.195435	415.805328
897.152710	375.505859
897.110046	402.263184
897.067383	420.074158
897.024719	402.134155
896.982056	384.199921
896.939331	437.738983
896.896667	393.008698
896.854004	473.320923
896.811279	343.772339
896.768555	392.819672
896.725830	348.125214
896.683167	406.080963
896.640442	356.937012
896.597778	481.787689
896.555054	486.170715
896.512268	414.739685
896.469604	548.438721
896.426880	401.232269
896.384094	427.912445
896.341431	360.993225
896.298706	445.599182
896.255920	356.422180
896.213257	454.365417
896.170532	449.838715
896.127747	369.610168
896.085022	414.075104
896.042236	427.363831
895.999512	396.138367
895.956787	360.472595
895.913940	427.158295
895.871216	382.601288
895.828430	475.950867
895.785767	471.427124
895.742981	453.564667
895.700195	400.139954
895.657410	364.513519
895.614624	471.124847
895.571838	368.840485
895.529114	493.189545
895.486267	444.243652
895.443481	461.939331
895.400757	506.275391
895.357910	448.470337
895.315125	483.915131
895.272339	510.470795
895.229553	492.636322
895.186768	465.932617
895.143921	541.282532
895.101135	519.015625
895.058350	505.626434
895.015442	580.933716
894.972656	514.332153
894.929871	452.185059
894.887024	478.707428
894.844238	536.243652
894.801392	567.175049
894.758545	544.932434
894.715698	451.822723
894.672913	469.466003
894.630066	495.960052
894.587219	473.743011
894.544373	438.252716
894.501526	460.312897
894.458679	477.940613
894.415894	522.110657
894.372986	517.603027
894.330078	460.017822
894.287292	583.775208
894.244446	521.776001
894.201538	517.271240
894.158691	610.016968
894.115845	570.141846
894.072876	556.793518
894.030029	565.540833
893.987183	596.373230
893.944275	525.607727
893.901428	569.685120
893.858521	463.622864
893.815552	573.917236
893.772766	529.684875
893.729858	573.733276
893.686951	644.243347
893.644043	591.197083
893.601135	569.046265
893.558167	520.439514
893.515320	555.634460
893.472412	524.681824
893.429504	573.089905
893.386536	581.813416
893.343689	621.382935
893.300720	577.220703
893.257812	594.750427
893.214844	665.132751
893.171936	576.943237
893.129028	541.623230
893.086060	501.911835
893.043091	607.480103
893.000183	475.343018
892.957275	519.273010
892.914307	563.188965
892.871338	523.505798
892.828430	545.414429
892.785461	584.907227
892.742493	602.401917
892.699524	628.683716
892.656555	567.043335
892.613525	641.667175
892.570618	694.295654
892.527649	681.003662
892.484619	557.894226
892.441711	711.530579
892.398682	663.110535
892.355652	658.613525
892.312744	676.068176
892.269775	623.287659
892.226746	574.912659
892.183777	680.131165
892.140686	570.341187
892.097717	701.845947
892.054749	640.331787
892.011719	583.222473
891.968750	644.511047
891.925720	679.477600
891.882751	775.795227
891.839722	657.348267
891.796692	639.716431
891.753662	626.471191
891.710632	661.412537
891.667603	788.312500
891.624573	648.064209
891.581482	621.691711
891.538513	722.272461
891.495422	695.896545
891.452454	665.152954
891.409363	595.041504
891.366272	603.695374
891.323242	673.581116
891.280273	664.726807
891.237122	638.385315
891.194092	690.744629
891.151062	786.798218
891.107971	716.745728
891.064880	760.327942
891.021851	729.623108
890.978760	755.716003
890.935730	751.227356
890.892639	633.200684
890.849548	698.592224
890.806458	711.576843
890.763367	724.557251
890.720276	698.256531
890.677185	759.232361
890.634155	698.032837
890.591003	737.179077
890.547913	815.564514
890.504761	697.697449
890.461731	793.503723
890.418579	649.522583
890.375488	732.230286
890.332336	727.755188
890.289246	766.852661
890.246155	753.660583
890.203003	779.674194
890.159912	618.413391
890.116760	696.692200
890.073669	753.177795
890.030457	735.645386
889.987366	692.005249
889.944214	739.761292
889.901062	722.239441
889.857910	796.076172
889.814758	826.394775
889.771606	843.657410
889.728516	808.737854
889.685364	769.482117
889.642212	804.132141
889.598999	925.690308
889.555908	821.255615
889.512695	851.536072
889.469543	773.209900
889.426392	755.713318
889.383240	820.729553
889.340027	768.496643
889.296875	846.513245
889.253723	963.568359
889.210449	863.600891
889.167297	798.377441
889.124146	845.971008
889.080933	893.549316
889.037781	811.004639
888.994507	741.495117
888.951294	841.093628
888.908081	853.963440
888.864868	715.133972
888.821716	810.355408
888.778503	875.216980
888.735291	862.080566
888.692078	844.617065
888.648804	809.836365
888.605652	783.726746
888.562378	909.150635
888.519226	934.976562
888.475952	969.450073
888.432739	913.041077
888.389465	969.139587
888.346252	808.928894
888.303040	916.927612
888.259766	955.700684
888.216492	964.195129
888.173279	899.194885
888.130066	929.307434
888.086731	993.983643
888.043457	911.725891
888.000244	937.501587
887.956970	898.475098
887.913696	950.158020
887.870483	898.187378
887.827209	928.266174
887.783936	936.751160
887.740601	884.807495
887.697327	945.082031
887.654053	893.153625
887.610779	888.696533
887.567505	1005.015259
887.524231	970.352844
887.480957	965.885498
887.437622	944.174316
887.394348	978.507996
887.351074	986.971130
887.307739	1103.162231
887.264404	995.272095
887.221130	1033.883301
887.177734	964.803284
887.134460	1003.406982
887.091125	1029.080933
887.047852	1149.458618
887.004517	1041.664673
886.961182	1118.964600
886.917908	1080.058228
886.874573	1075.583008
886.831238	1122.728760
886.787842	1191.364258
886.744568	1087.967163
886.701172	1186.683228
886.657837	1225.183105
886.614502	1044.462524
886.571167	1224.790771
886.527832	1237.485107
886.484436	1237.286987
886.441101	1172.657227
886.397766	1103.753296
886.354370	1094.988403
886.310974	1111.986572
886.267639	1283.516357
886.224304	1111.630493
886.180908	1364.640503
886.137451	1111.274536
886.094177	1252.664917
886.050781	1252.464355
886.007385	1239.398071
885.963989	1200.608643
885.920593	1264.724365
885.877197	1380.257812
885.833862	1397.180054
885.790405	1448.378052
885.747009	1345.319214
885.703613	1379.374023
885.660217	1486.230225
885.616821	1511.686646
885.573364	1477.190918
885.529968	1446.987183
885.486511	1455.316162
885.443115	1621.989868
885.399719	1587.498291
885.356323	1463.173828
885.312805	1625.488403
885.269409	1531.135986
885.225952	1637.796631
885.182556	1594.778931
885.139099	1671.471191
885.095642	1602.816650
885.052185	1576.919067
885.008728	1649.304443
884.965332	1678.945190
884.921875	1593.247559
884.878418	1592.992432
884.835022	1592.737427
884.791504	1549.788574
884.748108	1630.645874
884.704590	1643.188843
884.661072	1613.054321
884.617615	1655.462646
884.574219	1458.962891
884.530762	1774.360718
884.487244	1612.021606
884.443726	1671.458496
884.400269	1641.348145
884.356812	1751.911987
884.313232	1683.441406
884.269836	1687.433105
884.226257	1661.599854
884.182739	1725.231323
884.139343	1737.732544
884.095825	1771.522095
884.052307	1673.309448
884.008789	1690.069946
883.965332	1668.517212
883.921753	1732.086182
883.878235	1676.493164
883.834717	1663.461670
883.791199	1607.897217
883.747681	1667.182007
883.704163	1475.560059
883.660645	1755.932983
883.617126	1555.856201
883.573547	1666.114746
883.530029	1606.353394
883.486511	1584.851562
883.442932	1554.860107
883.399414	1665.047974
883.355896	1571.349854
883.312317	1541.374756
883.268738	1689.721680
883.225220	1978.101074
883.181641	14307.105469
883.138062	2860.114502
883.094482	1735.310791
883.050964	1718.064453
883.007385	1785.652710
882.963745	1734.477539
882.920227	1802.041504
882.876648	1738.161743
882.833069	1898.955566
882.789429	1868.985107
882.745911	1868.685913
882.702332	1948.884155
882.658691	1800.311279
882.615112	1880.494629
882.571533	1825.142944
882.527954	2095.826172
882.484314	1913.458252
882.440735	1917.384521
882.397156	1857.830200
882.353516	1916.770752
882.309875	1802.237549
882.266296	1742.730103
882.222656	1886.245605
882.179016	1907.086426
882.135437	1750.348999
882.091797	1745.841553
882.048218	1787.827515
882.004517	1821.348267
881.960876	1829.507080
881.917236	1867.234863
881.873657	1858.488281
881.829956	1697.710693
881.786316	1752.331177
881.742737	1701.388916
881.699036	1819.308350
881.655396	1840.119385
881.611694	1700.572021
881.568054	1662.327881
881.524414	1763.304077
881.480774	1796.763794
881.437073	1779.607910
881.393372	1492.607422
881.349731	1749.528076
881.306091	1690.237183
881.262390	1702.609863
881.218689	1567.498657
881.174988	1815.816650
881.131348	1659.668701
881.087646	1558.322632
881.044006	1545.440186
881.000244	1515.720459
880.956604	1553.364746
880.912903	1612.041870
880.869141	1485.534424
880.825500	1497.919556
880.781799	1543.956421
880.738098	1455.377197
880.694397	1467.760986
880.650574	1362.402466
880.606934	1475.699707
880.563232	1475.463501
880.519470	1517.256592
880.475769	1571.642944
880.432007	1470.553467
880.388306	1482.920776
880.344604	1365.076782
880.300842	1499.244263
880.257080	1524.197632
880.213379	1536.548340
880.169617	1368.400513
880.125854	1431.134521
880.082092	1460.278931
880.038391	1384.525635
879.994629	1350.745117
879.950867	1388.276611
879.907104	1413.215454
879.863342	1295.589478
879.819580	1379.225586
879.775818	1299.366333
879.732056	1307.539917
879.688293	1198.386475
879.644531	1168.868164
879.600708	1231.513306
879.556946	1130.800659
879.513123	1084.557373
879.469299	1193.240723
879.425598	1063.279419
879.381775	1092.407471
879.338013	1079.678223
879.294189	1058.584839
879.250427	1029.131104
879.206604	1054.063110
879.162781	1078.987061
879.119019	1108.084595
879.075134	1091.184082
879.031372	1153.711060
878.987549	1036.501953
878.943726	1086.481323
878.899963	1023.635864
878.856140	969.165344
878.812317	1073.429443
878.768433	1085.785889
878.724609	968.700012
878.680786	964.370178
878.636963	955.867615
878.593079	993.275452
878.549255	867.933716
878.505432	967.924927
878.461609	921.884338
878.417725	900.882996
878.373840	846.527649
878.330017	867.239258
878.286194	804.569153
878.242310	812.776550
878.198425	683.456482
878.154602	783.349060
878.110718	795.721924
878.066895	712.286255
878.022949	782.972961
877.979065	749.534973
877.935181	832.683289
877.891296	674.365540
877.847473	811.606323
877.803589	740.732300
877.759705	723.970764
877.715759	711.374573
877.671936	740.376648
877.627991	677.876831
877.584106	673.610229
877.540222	706.761780
877.496277	677.551392
877.452393	719.003845
877.408447	585.915100
877.364563	685.535583
877.320679	722.812683
877.276672	664.548950
877.232788	589.692810
877.188904	705.857239
877.144958	535.535339
877.101013	552.052673
877.057068	543.664124
877.013184	551.875977
876.969238	622.316895
876.925354	526.810608
876.881348	539.168640
876.837402	638.605225
876.793457	526.557678
876.749512	538.909729
876.705566	493.230713
876.661560	551.169617
876.617676	468.212006
876.573730	555.135986
876.529724	550.904968
876.485779	492.836090
876.441833	538.306152
876.397888	476.117676
876.353821	459.483521
876.309875	542.186523
876.265869	542.099731
876.221924	579.250488
876.177917	616.389343
876.133972	566.656494
876.089966	562.430298
876.046021	570.609985
876.002014	483.700562
875.958008	500.157257
875.913940	524.874390
875.869995	541.319214
875.825989	561.890320
875.781982	516.360596
875.737976	516.277954
875.693970	495.547485
875.649902	516.112671
875.605896	606.851318
875.561890	536.585327
875.517883	499.357178
875.473877	544.666077
875.429810	457.941345
875.385864	598.115906
875.341736	416.551971
875.297791	461.845062
875.253723	552.476196
875.209656	511.164764
875.165588	482.231476
875.121521	461.549408
875.077454	523.280273
875.033447	506.717865
874.989380	510.755737
874.945374	555.975708
874.901306	592.945801
874.857239	543.446655
874.813110	613.337769
874.769104	563.851196
874.725037	650.176819
874.680969	538.984375
874.636841	588.262756
874.592773	649.864624
874.548706	662.097839
874.504639	620.874329
874.460571	575.552917
874.416443	563.129456
874.372437	517.831787
874.328308	538.294495
874.284180	653.245178
874.240051	546.337708
874.196045	624.286011
874.151917	583.121216
874.107788	619.980347
874.063660	619.881042
874.019531	566.423157
873.975464	484.255280
873.931335	627.789795
873.887207	631.791870
873.843079	631.690674
873.798950	635.690796
873.754822	602.784424
873.710754	606.787842
873.666565	713.271484
873.622437	713.157288
873.578308	667.965698
873.534180	778.485657
873.489990	712.814819
873.445862	651.260986
873.401672	683.919373
873.357605	687.904541
873.313416	720.546509
873.269287	769.551453
873.225098	785.799072
873.180969	687.464111
873.136780	703.719604
873.092590	666.790283
873.048462	728.034790
873.004272	678.845093
872.960083	682.825195
872.915894	748.125793
872.871765	805.230469
872.827576	841.882874
872.783386	727.335693
872.739197	837.527771
872.695007	706.678589
872.650818	804.586121
872.606567	837.125610
872.562439	849.240234
872.518188	873.597656
872.474060	942.844604
872.429810	791.699402
872.385559	783.412109
872.341370	975.028748
872.297241	881.056458
872.252930	774.879272
872.208740	884.851990
872.164551	872.479309
872.120361	986.477478
872.076050	859.972839
872.031860	957.636292
871.987610	986.003723
871.943359	981.772156
871.899109	892.006958
871.854919	920.371155
871.810608	989.444214
871.766418	936.361023
871.722168	919.929138
871.677917	870.943909
871.633667	927.772949
871.589417	907.281738
871.545166	923.408020
871.500916	902.924011
871.456665	886.513123
871.412354	845.711975
871.368103	959.404175
871.323853	922.668945
871.279602	1007.864624
871.235229	1093.032959
871.190979	926.288513
871.146790	1060.186768
871.102417	1003.157837
871.058105	998.936523
871.013916	1055.617554
870.969604	1018.913696
870.925293	1014.691772
870.880981	1051.052368
870.836731	1014.366882
870.792419	1042.602173
870.748047	908.581665
870.703796	908.436157
870.659485	944.784546
870.615173	936.524780
870.570862	895.839111
870.526550	867.325256
870.482178	932.022705
870.437866	887.305603
870.393555	806.144043
870.349243	923.474365
870.304932	781.587769
870.260559	789.560669
870.216248	829.918091
870.171875	684.066772
870.127563	732.522278
870.083252	708.126343
870.038879	691.829773
869.994507	687.673889
869.950195	634.985352
869.905823	626.795959
869.861511	663.084351
869.817078	654.893066
869.772766	646.704407
869.728394	581.940735
869.684021	589.928772
869.639648	513.075012
869.595276	577.621887
869.550903	597.722717
869.506531	573.398865
869.462158	528.895935
869.417786	512.664368
869.373413	508.546173
869.328979	504.429291
869.284607	508.383301
869.240234	443.755615
869.195862	484.019501
869.151428	564.598999
869.107056	338.705139
869.062622	415.250488
869.018250	471.616760
868.973877	403.026703
868.929443	354.606689
868.885010	406.926575
868.840637	370.606445
868.796143	354.436340
868.751770	342.298462
868.707336	334.190826
868.662903	334.137329
868.618469	338.108917
868.574036	321.956909
868.529663	370.191162
868.485229	366.108673
868.440735	329.847290
868.396301	386.100830
868.351868	305.614197
868.307434	317.627045
868.263000	269.336761
868.218506	301.448090
868.174072	277.287811
868.129578	265.189331
868.085144	220.955719
868.040710	228.953796
867.996277	297.190643
867.951721	289.112152
867.907288	273.006653
867.862793	313.104523
867.818359	236.797531
867.773865	260.836853
867.729370	320.978546
867.684937	292.846008
867.640442	248.678696
867.595947	240.618256
867.551514	260.628021
867.506958	304.685486
867.462463	188.393738
867.417969	236.456390
867.373535	224.397232
867.328979	248.399994
867.284485	200.290482
867.239929	260.335938
867.195435	316.357605
867.150940	224.217560
867.106445	152.123260
867.061890	260.169159
867.017395	236.115723
866.972839	288.095062
866.928345	224.038040
866.883789	156.001495
866.839294	187.971695
866.794739	231.927902
866.750183	203.903931
866.705688	191.878845
866.661133	223.822784
866.616638	259.752686
866.572021	207.768860
866.527527	207.735580
866.482910	203.708023
866.438416	227.637207
866.393860	215.621750
866.349304	183.648361
866.304749	199.585800
866.260193	219.509216
866.215637	191.540985
866.171021	251.357269
866.126465	207.436249
866.081909	251.276733
866.037292	207.369797
865.992676	247.208984
865.948181	251.155991
865.903564	227.199966
865.859009	187.310303
865.814392	219.157791
865.769836	227.090790
865.725159	187.220291
865.680603	203.121384
865.635986	187.160309
865.591431	211.019302
865.546753	234.870636
865.502197	199.011032
865.457581	218.877060
865.412964	175.073593
865.368347	179.023849
865.323792	222.749542
865.279114	234.644943
865.234497	218.701767
865.189880	151.078827
865.145264	182.855591
865.100647	234.494598
865.055969	194.718552
865.011353	190.714142
864.966675	206.573883
864.922058	297.895355
864.877441	301.818909
864.832825	250.151917
864.788147	265.991943
864.743469	246.102356
864.698853	178.594055
864.654175	238.087250
864.609497	202.341736
864.564880	277.679443
864.520203	210.209320
864.475586	226.037949
864.430908	329.090240
864.386169	210.108292
864.341492	245.747665
864.296875	190.225769
864.252136	221.894501
864.207520	285.247223
864.162781	205.978867
864.118103	213.866852
864.073425	201.952988
864.028687	217.757538
863.984009	162.302338
863.939331	162.276321
863.894653	233.482162
863.849976	178.051086
863.805237	257.143677
863.760559	213.592819
863.715820	241.242111
863.671143	249.111755
863.626404	185.815491
863.581665	197.644379
863.536987	197.612701
863.492249	169.919693
863.447571	209.402328
863.402832	193.567352
863.358093	213.284943
863.313354	276.436157
863.268616	244.804214
863.223877	201.338943
863.179138	240.778564
863.134338	244.686539
863.089600	189.404373
863.044861	232.772232
863.000183	240.624237
862.955444	315.522186
862.910645	248.433899
862.865906	212.909210
862.821106	299.601990
862.776367	153.718475
862.731628	228.570328
862.686890	240.354401
862.642090	228.497055
862.597290	267.850159
862.552490	157.533661
862.507751	189.010101
862.463013	220.476440
862.418213	196.822403
862.373352	184.983398
862.328613	145.601898
862.283813	247.876999
862.239014	216.365860
862.194275	216.331177
862.149475	251.690475
862.104675	224.125900
862.059814	192.638748
862.015076	275.154083
861.970215	192.576996
861.925415	204.334656
861.880615	255.377380
861.835754	184.627884
861.790955	235.657394
861.746155	188.495682
861.701294	204.170929
861.656494	164.880844
861.611694	239.431412
861.566833	235.468552
861.522034	188.344650
861.477173	196.160889
861.432373	227.510147
861.387512	192.176041
861.342651	211.751877
861.297852	156.828094
861.252991	254.804810
861.208130	192.052826
861.163269	160.671494
861.118408	250.764084
861.073608	180.207779
861.028687	203.680481
860.983826	223.229355
860.938965	215.362213
860.894165	203.582535
860.849243	230.950836
860.804382	203.517258
860.759460	207.397797
860.714600	176.064224
860.669739	219.067017
860.624817	168.185211
860.580017	160.336929
860.535095	199.411514
860.490173	140.738495
860.445251	140.715927
860.400391	222.764496
860.355469	250.081436
860.310608	167.996521
860.265686	199.219742
860.220764	160.131363
860.175903	183.535782
860.130920	191.315140
860.086060	214.707047
860.041138	199.060059
859.996216	179.515579
859.951294	230.211319
859.906372	183.359268
859.861450	218.435593
859.816467	222.300568
859.771606	222.264923
859.726685	202.735474
859.681702	136.434692
859.636780	155.900360
859.591858	175.359772
859.546936	175.331650
859.501953	225.946777
859.457031	202.540482
859.412109	198.613617
859.367065	147.962875
859.322144	97.328384
859.277161	171.270493
859.232239	171.243027
859.187256	194.563126
859.142273	190.641296
859.097290	190.610718
859.052429	171.133194
859.007385	128.329300
858.962402	159.413864
858.917419	182.713409
858.872498	178.797211
858.827454	248.721436
858.782532	237.024597
858.737488	170.941147
858.692505	170.913727
858.647522	225.259232
858.602478	170.858902
858.557495	236.834564
858.512512	194.095551
858.467529	159.132828
858.422485	170.749298
858.377502	178.481995
858.332458	162.935684
858.287537	224.970322
858.242493	201.665176
858.197449	143.469513
858.152405	189.969681
858.107422	147.299789
858.062378	155.027542
858.017334	213.128677
857.972290	201.471146
857.927307	197.565002
857.882263	259.504547
857.837219	127.795166
857.792236	181.982101
857.747131	224.537628
857.702087	123.862953
857.657043	181.894531
857.611938	201.212723
857.566956	166.360748
857.521912	170.202301
857.476807	181.777832
857.431763	189.482651
857.386719	197.184998
857.341614	216.482117
857.296570	173.930939
857.251465	108.206329
857.206421	216.377930
857.161316	216.343216
857.116272	115.879555
857.071167	200.825668
857.026123	200.793442
856.981018	166.014099
856.935974	193.008667
856.890869	189.118149
856.845764	239.253952
856.800659	212.207352
856.755554	192.884827
856.710510	185.139709
856.665344	185.110001
856.620239	154.233582
856.575134	146.498398
856.530029	181.166306
856.484924	188.845200
856.439758	173.401428
856.394653	150.257126
856.349548	150.233017
856.304443	204.130051
856.259338	265.711578
856.214233	200.214264
856.169006	173.234543
856.123962	219.395203
856.078796	200.117889
856.033630	219.324783
855.988525	161.581802
855.943420	150.016159
855.898254	153.838043
855.853027	207.648026
855.807922	157.633377
855.762756	215.269577
855.717590	157.582779
855.672485	211.357620
855.627258	165.216705
855.582153	195.923248
855.536987	169.004684
855.491821	134.413971
855.446655	142.071960
855.401489	115.174995
855.356262	165.057663
855.311096	226.438110
855.265930	287.798859
855.220764	180.324997
855.175537	153.443451
855.130371	176.431641
855.085205	184.073029
855.039978	203.214676
854.994812	203.182053
854.949646	191.650421
854.904358	172.457687
854.859192	203.084229
854.814026	191.558136
854.768799	160.882996
854.723511	191.496643
854.678406	187.636581
854.633179	111.032394
854.587952	214.372955
854.542725	218.166016
854.497498	168.381821
854.452209	168.354782
854.407043	237.189102
854.361755	172.125748
854.316589	122.380882
854.271301	130.008804
854.226074	217.920944
854.180908	198.773163
854.135681	183.453461
854.090332	133.746674
854.045105	259.808960
853.999878	194.825424
853.954651	187.155151
853.909363	206.219513
853.864136	225.277725
853.818848	202.335632
853.773621	202.303146
853.728333	194.637802
853.683044	186.974930
853.637817	198.390503
853.592529	190.729477
853.547241	198.326797
853.501953	209.735046
853.456726	232.577881
853.411438	213.479828
853.366089	171.518738
853.320801	217.222183
853.275513	167.653351
853.230225	194.294281
853.184937	236.162949
853.139648	148.530258
853.094421	159.929977
853.049072	228.434692
853.003784	159.878616
852.958435	175.077026
852.913147	232.130066
852.867859	182.630386
852.822571	251.076462
852.777222	186.375305
852.731873	197.754272
852.686584	201.524872
852.641296	266.122162
852.595886	186.255600
852.550598	266.036682
852.505249	201.395432
852.459900	224.158905
852.414551	205.129425
852.369263	148.125244
852.323914	178.481232
852.278564	167.061966
852.233215	193.608902
852.187927	250.512451
852.142517	189.751678
852.097168	182.132355
852.051819	121.402061
852.006470	170.694229
851.961121	216.177948
851.915771	246.479111
851.870361	204.734375
851.825012	159.212265
851.779602	174.347321
851.734253	189.477509
851.688843	159.135544
851.643555	162.898315
851.598145	193.173935
851.552734	174.207321
851.507324	189.325363
851.461975	170.365448
851.416565	147.626328
851.371216	227.080948
851.325806	230.828537
851.280396	170.255981
851.235046	177.794342
851.189636	204.241531
851.144165	147.484070
851.098755	241.986267
851.053345	136.095398
851.007935	151.192810
850.962524	185.181442
850.917175	177.594467
850.871765	204.011932
850.826294	135.986099
850.780945	203.946365
850.735474	222.794479
850.690002	128.369415
850.644592	222.722885
850.599182	192.492233
850.553711	94.343773
850.508301	203.749802
850.462891	188.626907
850.417419	241.403641
850.372009	177.252304
850.326538	214.931015
850.281067	271.448181
850.235657	229.939972
850.190186	150.756073
850.144714	169.573334
850.099182	222.293747
850.053772	158.217575
850.008301	195.856934
849.962830	225.952454
849.917358	192.028717
849.871887	210.821167
849.826355	191.966995
849.780945	165.591965
849.735474	154.276794
849.690002	259.594818
849.644470	225.698349
849.598999	270.794495
849.553528	240.667511
849.507996	195.510925
849.462524	191.720276
849.417053	191.689453
849.371521	278.092926
849.325989	244.231552
849.280518	187.840225
849.234985	232.884430
849.189514	225.335800
849.143982	221.544586
849.098450	206.491409
849.052979	240.242279
849.007446	217.684570
848.961914	183.876358
848.916443	180.094833
848.870911	198.822739
848.825378	247.550766
848.779846	296.263123
848.734253	251.220734
848.688721	221.188660
848.643250	206.159668
848.597656	209.874283
848.552124	213.587677
848.506592	277.244690
848.461060	138.600052
848.415466	172.285873
848.369934	265.876740
848.324341	153.509766
848.278809	217.125244
848.233276	247.033829
848.187683	232.024765
848.142151	202.053589
848.096558	246.914673
848.050964	235.653366
848.005371	186.996414
847.959839	157.051727
847.914246	198.152451
847.868652	175.691833
847.823120	227.988907
847.777466	250.373764
847.731934	224.179260
847.686340	201.728882
847.640747	220.372040
847.595093	265.150818
847.549500	182.961975
847.503906	186.665863
847.458313	242.626602
847.412720	253.783920
847.367188	208.964905
847.321533	201.469467
847.275879	182.785477
847.230286	201.404663
847.184692	193.914032
847.139038	190.154327
847.093445	182.667908
847.047791	208.729736
847.002197	227.329742
846.956543	245.923767
846.910950	234.707657
846.865356	204.870544
846.819641	216.010544
846.773987	219.699524
846.728333	223.387299
846.682739	163.791000
846.637085	163.764648
846.591431	245.607452
846.545776	234.405762
846.500183	286.449829
846.454468	245.488922
846.408813	130.162582
846.363159	200.789948
846.317505	189.604446
846.271851	237.896713
846.226135	178.393829
846.180481	178.365112
846.134827	256.358612
846.089172	237.743637
846.043457	233.991226
845.997803	207.958740
845.952148	297.036102
845.906433	207.891815
845.860718	252.399445
845.815002	185.557968
845.769348	204.080917
845.723633	226.307861
845.677979	233.690186
845.632324	241.070114
845.586548	196.533234
845.540894	196.501602
845.495178	229.832809
845.449463	185.319214
845.403748	211.229904
845.358032	237.132248
845.312317	237.094086
845.266602	222.239929
845.220886	199.983749
845.175110	244.385239
845.129456	233.239273
845.083679	236.903351
845.037964	229.463181
844.992249	255.329208
844.946533	244.188629
844.900818	192.360077
844.854980	166.438644
844.809265	192.298141
844.763550	158.990173
844.717773	292.051208
844.672058	188.509048
844.626282	192.174362
844.580505	254.959549
844.534729	173.640137
844.489014	232.714203
844.443237	262.222992
844.397522	177.248978
844.351746	221.525558
844.305969	203.032394
844.260193	221.454239
844.214417	236.179825
844.168640	217.693222
844.122803	217.658173
844.077087	206.557541
844.031250	276.595032
843.985474	213.865707
843.939697	243.325256
843.893982	228.541458
843.848145	221.133545
843.802368	206.358078
843.756531	250.537323
843.710754	224.710526
843.664917	209.941589
843.619141	169.399261
843.573303	246.693985
843.527527	147.256271
843.481689	235.572098
843.435913	231.853943
843.390137	147.185150
843.344299	264.890594
843.298462	217.028168
843.252625	228.026779
843.206787	235.344574
843.160950	194.863327
843.115112	202.184097
843.069336	191.125092
843.023438	246.217667
842.977661	202.086426
842.931763	216.748703
842.885986	202.021332
842.840088	260.749176
842.794250	194.612396
842.748413	256.993835
842.702576	227.586456
842.656677	238.560272
842.610840	242.191406
842.565002	264.166260
842.519104	256.786926
842.473206	187.057480
842.427429	223.699371
842.381531	172.330765
842.335632	161.304947
842.289795	230.922150
842.243835	267.533356
842.197998	271.154510
842.152161	216.155914
842.106262	212.458023
842.060303	216.086273
842.014465	256.332245
841.968567	219.677963
841.922668	300.178162
841.876770	245.228012
841.830933	223.231323
841.784973	318.327789
841.739075	223.159393
841.693237	212.150146
841.647278	197.487274
841.601318	204.768616
841.555420	303.447449
841.509521	296.087738
841.463562	266.801514
841.417664	266.758514
841.371765	252.100983
841.325867	222.835968
841.279907	171.665619
841.234009	219.112274
841.188049	237.333389
841.142090	219.041656
841.096130	178.855194
841.050232	262.765289
841.004272	222.584702
840.958374	226.197174
840.912415	237.103973
840.866455	317.303406
840.820496	269.846741
840.774536	164.069550
840.728638	284.341370
840.682678	225.978516
840.636719	185.855591
840.590759	258.698425
840.544800	251.370621
840.498779	225.832855
840.452820	218.512695
840.406799	247.607803
840.360901	258.489990
840.314880	283.929138
840.268921	171.057938
840.222900	262.003937
840.176941	229.216492
840.130981	287.383881
840.084961	207.319489
840.039001	156.373703
839.992981	239.976746
839.947021	261.750610
839.901001	247.169052
839.854980	268.934723
839.808960	276.158691
839.763000	316.078064
839.716980	228.847214
839.670959	236.074127
839.625000	257.824005
839.578918	254.151703
839.532959	217.809189
839.486877	185.107956
839.440857	174.191162
839.394836	192.305054
839.348816	257.574677
839.302795	282.923706
839.256775	195.838684
839.210754	261.076141
839.164673	268.284973
839.118652	275.491486
839.072571	239.204025
839.026611	333.382141
838.980530	268.111938
838.934509	297.049103
838.888428	289.757263
838.842407	228.147049
838.796265	228.110245
838.750244	253.414948
838.704224	285.950745
838.658142	285.904602
838.612061	264.147736
838.566040	249.633606
838.519958	271.297119
838.473877	321.887299
838.427734	307.370880
838.381714	235.010391
838.335632	263.892181
838.289551	318.065277
838.243469	281.876007
838.197388	256.538055
838.151245	263.721924
838.105225	242.007111
838.059143	274.471222
838.013000	270.816071
837.966919	252.720886
837.920837	241.850967
837.874695	216.548004
837.828613	241.772934
837.782471	277.813599
837.736450	266.946625
837.690308	263.296753
837.644165	313.741394
837.598083	270.423065
837.551880	223.513657
837.505798	270.335785
837.459717	248.668808
837.413513	281.058502
837.367432	273.807678
837.321289	295.376404
837.275146	338.547577
837.229004	266.473175
837.182861	338.438324
837.136780	280.786469
837.090637	291.538879
837.044434	284.294495
836.998352	226.679276
836.952148	330.970276
836.906006	276.963043
836.859863	305.689056
836.813721	294.852448
836.767578	316.375946
836.721375	269.595062
836.675171	337.837921
836.629028	312.629303
836.582825	344.914612
836.536743	294.566986
836.490540	255.010742
836.444336	301.654144
836.398132	244.156784
836.351990	280.016998
836.305786	272.793030
836.259644	319.403412
836.213440	322.940063
836.167236	308.537354
836.121094	304.900482
836.074890	286.918823
836.028625	286.872498
835.982422	326.264801
835.936218	286.779877
835.890076	290.317749
835.843872	372.693451
835.797668	243.644836
835.751404	347.496063
835.705261	279.384705
835.658997	200.551514
835.612793	239.906799
835.566528	261.348785
835.520325	286.363373
835.474121	268.422302
835.427856	264.800568
835.381653	261.180023
835.335388	314.796295
835.289185	275.402283
835.242920	300.390320
835.196716	278.888824
835.150513	268.119019
835.104248	210.886230
835.057922	253.737350
835.011719	246.549988
834.965454	275.091064
834.919250	292.906799
834.872986	246.430542
834.826660	257.103363
834.780457	253.491547
834.734192	253.450592
834.687927	278.393707
834.641663	253.368713
834.595398	271.167786
834.549072	281.826233
834.502869	256.812805
834.456543	260.337585
834.410278	246.032745
834.364014	281.644165
834.317688	256.646881
834.271423	206.709915
834.225159	277.944275
834.178833	238.708435
834.132568	217.296448
834.086243	245.754639
834.039978	309.814453
833.993652	259.917267
833.947388	245.635529
833.901062	252.714554
833.854736	231.321014
833.808472	298.889618
833.762146	224.130981
833.715820	241.880066
833.669495	252.510437
833.623169	206.242798
833.576843	266.650177
833.530518	302.154694
833.484192	255.901428
833.437866	280.735352
833.391541	241.606567
833.345215	284.197083
833.298889	273.495483
833.252563	266.348633
833.206177	237.899673
833.159851	319.515076
833.113525	223.624390
833.067200	227.137268
833.020813	255.488113
832.974487	298.021301
832.928101	269.594727
832.881775	226.990433
832.835388	283.692169
832.789062	273.009583
832.742676	241.060394
832.696289	233.932556
832.649963	283.508789
832.603577	219.683777
832.557190	226.733688
832.510803	290.455566
832.464417	223.118820
832.418091	265.574707
832.371643	251.370056
832.325317	240.709869
832.278870	201.738876
832.232483	258.325562
832.186096	258.283783
832.139709	208.716156
832.093323	208.682404
832.046936	279.377014
832.000549	215.686615
831.954102	293.427765
831.907776	307.519135
831.861328	215.582001
831.814880	243.815613
831.768494	261.441101
831.722046	250.801590
831.675659	300.206848
831.629272	268.376831
831.582825	261.272034
831.536438	307.121490
831.489929	317.660492
831.443542	328.196075
831.397156	243.460938
831.350708	275.172180
831.304260	225.745789
831.257812	285.663300
831.211365	218.620483
831.164917	260.891907
831.118530	218.549759
831.072021	246.709808
831.025574	267.813049
830.979065	260.723145
830.932678	243.067383
830.886169	313.470978
830.839722	211.294556
830.793274	260.554474
830.746826	274.594055
830.700378	200.632416
830.653931	246.350830
830.607422	281.498230
830.560974	288.489014
830.514465	291.959930
830.468018	242.674393
830.421509	305.931244
830.375061	239.079987
830.328552	210.918793
830.282043	242.517365
830.235535	249.506470
830.189087	288.115753
830.142578	245.912674
830.096130	284.510040
830.049622	280.952087
830.003113	242.281967
829.956543	270.328888
829.910095	280.815704
829.863525	256.202850
829.817078	298.270111
829.770569	277.170898
829.723999	266.602264
829.677490	294.617950
829.630981	245.475220
829.584473	273.485260
829.537964	269.935333
829.491455	280.406891
829.444885	332.929291
829.398376	252.284500
829.351868	350.338409
829.305298	336.270447
829.258789	329.211487
829.212219	308.148102
829.165710	311.599335
829.119141	395.562073
829.072571	290.498535
829.026001	314.947418
828.979492	307.898712
828.932922	321.842010
828.886353	318.292175
828.839783	297.257751
828.793274	328.678864
828.746704	332.121643
828.700134	325.076965
828.653564	352.983398
828.606995	290.028503
828.560425	269.019012
828.513794	255.002701
828.467285	356.247437
828.420715	328.253296
828.374146	300.268188
828.327515	230.401062
828.280945	338.564911
828.234375	275.693756
828.187744	387.304443
828.141113	275.604462
828.094604	317.417023
828.047974	313.878082
828.001404	289.418457
827.954773	320.749207
827.908142	331.154755
827.861572	306.704193
827.814941	285.746246
827.768311	306.604828
827.721680	285.653687
827.675110	292.573425
827.628479	226.359436
827.581909	285.514862
827.535278	320.281860
827.488586	344.595276
827.441956	299.296906
827.395386	309.687317
827.348694	285.283630
827.302063	320.022461
827.255493	313.014740
827.208862	323.396149
827.162170	302.482849
827.115540	330.243866
827.068848	305.860535
827.022217	253.684097
826.975647	316.185089
826.928955	347.399841
826.882263	316.082611
826.835571	295.194153
826.789001	312.507874
826.742249	277.739746
826.695618	336.704865
826.648987	277.649719
826.602295	308.835266
826.555603	326.132690
826.508972	291.390472
826.462280	267.064636
826.415588	239.278870
826.368896	211.502106
826.322266	239.201309
826.275574	232.230286
826.228882	301.503876
826.182190	287.595001
826.135498	228.652924
826.088806	287.501770
826.042053	270.138580
825.995361	280.483032
825.948669	342.757019
825.901978	297.700256
825.855286	287.268768
825.808594	262.998627
825.761841	262.955994
825.715149	231.778885
825.668396	245.576599
825.621765	266.286377
825.575012	259.327789
825.528320	345.714294
825.481567	221.221283
825.434814	314.497986
825.388123	297.169678
825.341370	279.846985
825.294617	321.253693
825.247864	231.403305
825.201172	321.149506
825.154419	286.570801
825.107727	262.359619
825.060974	283.026306
825.014160	241.568649
824.967468	286.384949
824.920654	300.137939
824.873962	331.132965
824.827148	317.284271
824.780396	237.924606
824.733643	299.943237
824.686890	282.659271
824.640137	217.129807
824.593384	337.702698
824.546631	341.093292
824.499817	292.810364
824.453003	261.764435
824.406311	275.496826
824.359497	337.428833
824.312744	309.833344
824.265930	254.710526
824.219177	258.110687
824.172302	289.037048
824.125549	278.669067
824.078735	282.063660
824.031982	282.017883
823.985168	223.514496
823.938354	264.735748
823.891541	261.255219
823.844788	343.701080
823.797974	243.988159
823.751221	347.025421
823.704346	322.921722
823.657532	243.869385
823.610718	322.816925
823.563904	319.330872
823.517090	271.215515
823.470276	281.469147
823.423462	353.495331
823.376648	236.769119
823.329773	315.640900
823.282959	267.565155
823.236084	240.083603
823.189331	322.345642
823.142456	250.291611
823.095642	284.531952
823.048767	233.072662
823.001953	212.472931
822.955017	287.819824
822.908203	284.347198
822.861328	250.047913
822.814514	256.856842
822.767639	229.421509
822.720764	256.773438
822.673950	314.924255
822.627075	308.028046
822.580200	314.821991
822.533386	297.663757
822.486450	297.615417
822.439636	273.624908
822.392700	307.778046
822.345825	232.505646
822.298950	287.166199
822.252075	259.774841
822.205200	280.237885
822.158325	242.605576
822.111450	341.642517
822.064514	307.428314
822.017639	286.886475
821.970764	235.618484
821.923828	269.722260
821.876953	283.333069
821.830078	293.526337
821.783142	259.353241
821.736267	266.135071
821.689331	286.560455
821.642456	402.483795
821.595520	262.595062
821.548584	300.059906
821.501648	296.601929
821.454712	252.241119
821.407837	279.465027
821.360901	282.827179
821.314026	265.746185
821.267029	306.580414
821.220154	265.659851
821.173157	343.939545
821.126221	309.835785
821.079285	343.827789
821.032349	292.716675
820.985413	313.087891
820.938477	302.829285
820.891541	255.151749
820.844604	278.920563
820.797668	323.087158
820.750671	323.034668
820.703735	299.183472
820.656738	343.325226
820.609802	346.668121
820.562866	288.843170
820.515930	261.615387
820.468933	315.925659
820.421997	292.098816
820.375000	298.843231
820.328003	288.608490
820.281006	366.642944
820.234009	288.514648
820.187073	322.405151
820.140076	278.241302
820.093140	339.263489
820.046082	301.895416
819.999146	322.195526
819.952148	230.586670
819.905090	281.405609
819.858093	284.749756
819.811096	352.489990
819.764099	338.877563
819.717163	284.610870
819.670105	294.727600
819.623108	352.260773
819.576111	311.564636
819.529114	294.583862
819.482117	233.597473
819.435059	267.408691
819.388062	355.358826
819.341064	250.402618
819.294006	368.776306
819.247009	304.444672
819.199951	338.216858
819.152954	334.780212
819.105896	321.201508
819.058838	280.583038
819.011841	375.176514
818.964783	354.838989
818.917725	351.402374
818.870667	324.318665
818.823669	303.999298
818.776611	330.967590
818.729553	411.953857
818.682434	327.483795
818.635376	347.683960
818.588379	327.377258
818.541321	334.072937
818.494263	310.401123
818.447144	327.217499
818.400146	384.502319
818.353027	374.322906
818.306030	313.570862
818.258911	394.428192
818.211853	320.210083
818.164795	316.787903
818.117676	323.475433
818.070618	411.016449
818.023499	363.791412
817.976440	380.571686
817.929321	360.305664
817.882202	397.281769
817.835144	343.357178
817.788025	343.301300
817.740967	329.784821
817.693848	393.658600
817.646729	353.225861
817.599670	373.349396
817.552551	343.022003
817.505432	369.865448
817.458374	426.956970
817.411255	275.628113
817.364075	346.159454
817.316956	403.226929
817.269897	419.959656
817.222717	436.686951
817.175598	403.029999
817.128479	439.902802
817.081360	436.473694
817.034180	332.337372
816.987061	379.272827
816.939941	328.873322
816.892822	322.109161
816.845642	409.280396
816.798523	352.192169
816.751404	425.915436
816.704224	392.314880
816.657104	355.372711
816.609985	442.467529
816.562744	412.232147
816.515625	432.270599
816.468506	375.243591
816.421265	401.981232
816.374146	468.901703
816.326965	421.942810
816.279785	395.088409
816.232605	478.715607
816.185486	421.736664
816.138306	435.054230
816.091125	465.097595
816.043945	388.075775
815.996765	424.806854
815.949585	414.704468
815.902405	334.384613
815.855164	377.793060
815.807983	387.759766
815.760803	404.407654
815.713623	467.833435
815.666443	410.958130
815.619263	380.825958
815.572083	430.864410
815.524841	397.399323
815.477661	427.385071
815.430420	413.961823
815.383240	463.962219
815.335999	430.513489
815.288757	420.433014
815.241577	513.778809
815.194336	433.638733
815.147156	396.881531
815.099915	406.820618
815.052673	526.780212
815.005432	503.359772
814.958252	436.618439
814.911011	473.203888
814.863770	506.445557
814.816528	463.055634
814.769287	389.702728
814.722046	376.318207
814.674866	376.256836
814.627563	446.107941
814.580322	426.063507
814.533081	399.369415
814.485840	429.252136
814.438599	445.817108
814.391296	449.070862
814.344055	419.064484
814.296753	482.178101
814.249573	315.858276
814.202209	432.156647
814.154968	478.618530
814.107727	468.570892
814.060486	505.043701
814.013184	398.653687
813.965881	428.482849
813.918640	425.091919
813.871338	448.266022
813.824097	381.793976
813.776794	404.967529
813.729431	454.684479
813.682190	467.883606
813.634949	398.133850
813.587585	447.827545
813.540283	437.804382
813.492981	474.210724
813.445740	484.080231
813.398376	457.480652
813.351074	434.204254
813.303833	410.935455
813.256531	467.197144
813.209167	447.243439
813.161865	457.107605
813.114502	466.968536
813.067261	466.892334
813.019958	480.059174
812.972595	506.462555
812.925232	512.999268
812.877930	569.170776
812.830566	512.831848
812.783325	489.591797
812.735962	486.204407
812.688599	502.659912
812.641296	403.384888
812.593933	442.989777
812.546631	462.749603
812.499207	489.112610
812.451904	406.425903
812.404541	383.233398
812.357239	412.899628
812.309875	366.595032
812.262512	416.066956
812.215149	488.633820
812.167786	425.834259
812.120361	521.479309
812.073059	501.594421
812.025635	465.218872
811.978333	451.947357
811.930969	435.381866
811.883545	547.436279
811.836182	461.617859
811.788818	530.773865
811.741394	491.132904
811.694031	491.052704
811.646667	500.857880
811.599304	504.070679
811.551880	451.283691
811.504456	536.841125
811.457092	447.843353
811.409668	493.864227
811.362305	474.032227
811.314941	460.789398
811.267517	457.423340
811.220154	460.638916
811.172729	424.376526
811.125305	447.331635
811.077881	463.701904
811.030457	427.456757
810.983032	440.537292
810.935608	417.455963
810.888184	433.820374
810.840820	486.325195
810.793396	512.529297
810.745911	512.445557
810.698486	499.224396
810.651062	423.614624
810.603638	439.961914
810.556213	505.545258
810.508728	502.180450
810.461365	528.351929
810.413879	429.830994
810.366394	459.286316
810.318970	478.891754
810.271545	482.093048
810.224060	465.619232
810.176636	472.100098
810.129211	432.687714
810.081726	491.610229
810.034302	445.653748
809.986816	488.173218
809.939331	435.680725
809.891907	458.536346
809.844421	517.406433
809.796936	507.499298
809.749451	448.490570
809.702026	533.518372
809.654480	523.613403
809.607056	530.071899
809.559570	556.157349
809.512085	575.692322
809.464600	601.761780
809.417114	513.375854
809.369568	565.601929
809.322144	601.466675
809.274597	614.441589
809.227173	526.111267
809.179626	545.628662
809.132141	542.272766
809.084656	584.644287
809.037109	584.548706
808.989563	555.067200
808.942078	554.976440
808.894592	587.526062
808.847107	561.321960
808.799561	574.282043
808.752014	583.975403
808.704529	531.689514
808.656982	463.113892
808.609497	577.167297
808.561951	544.469910
808.514404	619.355408
808.466858	593.180298
808.419373	563.754944
808.371826	599.502563
808.324280	579.858704
808.276733	589.535156
808.229187	569.899292
808.181641	700.047485
808.134094	585.990356
808.086548	637.973999
808.039001	634.615173
807.991455	582.448914
807.943909	559.580017
807.896301	543.224243
807.848755	582.163025
807.801208	611.333801
807.753662	546.208862
807.706055	552.620911
807.658508	581.782104
807.610901	568.688293
807.563416	610.833740
807.515747	639.971069
807.468201	620.377991
807.420654	617.028931
807.373108	603.940002
807.325439	636.305725
807.277832	671.906799
807.230347	684.778381
807.182739	665.197083
807.135132	700.775879
807.087463	729.855408
807.039917	687.573425
806.992310	632.334290
806.944702	677.621704
806.897156	680.752441
806.849548	619.059143
806.801880	589.792297
806.754272	638.296997
806.706665	651.150696
806.659058	660.761169
806.611450	647.699036
806.563843	650.830933
806.516235	734.897644
806.468567	686.223755
806.420959	666.693115
806.373291	776.602661
806.325684	734.416382
806.278076	792.522217
806.230469	753.581421
806.182800	750.224243
806.135132	733.935425
806.087524	850.191162
806.039856	791.873474
805.992249	714.185181
805.944580	768.996521
805.896973	755.948364
805.849243	733.214417
805.801636	742.782776
805.753967	758.805908
805.706299	813.564941
805.658691	829.571167
805.611023	748.750916
805.563354	690.544983
805.515625	796.900330
805.468018	738.705566
805.420349	806.315002
805.372681	719.115112
805.324951	786.705566
805.277283	822.037048
805.229614	805.786621
805.181885	776.651001
805.134216	866.742249
805.086548	14207.088867
805.038879	6599.899414
804.991211	904.962280
804.943481	943.453735
804.895752	885.348999
804.848083	885.203857
804.800354	971.955444
804.752686	929.963867
804.705017	1045.635620
804.657288	1051.897949
804.609619	977.750916
804.561890	877.902100
804.514160	961.354187
804.466431	909.761292
804.418701	848.542786
804.371033	790.557983
804.323303	886.822083
804.275513	844.912903
804.227844	831.926086
804.180115	905.655212
804.132385	876.607544
804.084595	796.201538
804.036865	844.220459
803.989197	914.689636
803.941467	930.584167
803.893738	895.139343
803.845947	965.565430
803.798218	952.577759
803.750488	952.421509
803.702759	958.677856
803.654968	1035.458740
803.607178	945.542480
803.559448	967.820312
803.511719	1047.765991
803.463928	948.280945
803.416199	1021.797302
803.368408	1040.845215
803.320679	944.612244
803.272888	960.465027
803.225159	960.307434
803.177307	979.352905
803.129578	927.992615
803.081787	985.430481
803.033997	946.881714
802.986206	991.503906
802.938416	1048.902954
802.890686	1042.336182
802.842896	1058.149292
802.795105	1048.386719
802.747253	1160.066772
802.699524	1105.557129
802.651672	1159.686157
802.603882	1124.359497
802.556091	1159.305420
802.508301	1187.853638
802.460510	1238.740723
802.412720	1257.690063
802.364929	1174.502441
802.317078	1174.309692
802.269226	1225.165405
802.221436	1240.914429
802.173645	1301.310913
802.125793	1256.451782
802.078003	1246.680298
802.030151	1402.683472
801.982361	1322.768311
801.934509	1383.101685
801.886719	1481.651367
801.838867	1408.134155
801.791016	1474.794312
801.743164	1423.595703
801.695312	1573.021851
801.647522	1572.763550
801.599609	1601.154175
801.551819	1645.448853
801.503967	1689.728882
801.456055	1708.541260
801.408203	1705.079468
801.360352	1739.786011
801.312500	1723.599976
801.264709	1729.675903
801.216797	1789.793335
801.168945	1722.750732
801.121094	1830.519287
801.073181	1750.781982
801.025391	1826.740967
800.977478	1842.322998
800.929565	1867.427490
800.881714	1997.311035
800.833862	1996.982910
800.785950	2142.674072
800.738037	2075.672119
800.690247	2180.049561
800.642334	2236.801025
800.594421	2249.122559
800.546570	2318.531006
800.498596	2368.889160
800.450745	2485.815186
800.402832	2431.513916
800.354980	2440.623291
800.307068	2307.119141
800.259155	2363.774658
800.211243	2391.898926
800.163330	2391.505859
800.115417	2365.776367
800.067505	2431.884521
800.019653	2361.832764
799.971680	2222.163574
799.923767	2107.859863
799.875854	2180.295410
799.827942	2192.592773
799.779968	2160.598389
799.732117	2087.497070
799.684143	2134.589111
799.636230	2175.342041
799.588257	2301.436768
799.540344	2079.802979
799.492371	2262.756836
799.444458	2123.355469
799.396545	2195.668701
799.348572	2296.386719
799.300598	2258.110596
799.252686	2308.262207
799.204712	2210.010742
799.156738	2367.479248
799.108826	2171.410400
799.060852	2126.874756
799.012878	2145.455566
798.964966	2066.238525
798.916992	2308.760010
798.869019	2153.857422
798.821045	2175.574219
798.773071	2011.287109
798.725098	2118.123047
798.677124	2064.199951
798.629150	2010.294556
798.581116	2054.069580
798.533203	1915.136353
798.485168	1977.808716
798.437256	1816.891602
798.389221	1892.152832
798.341248	1876.102295
798.293274	1844.320557
798.245300	1759.053833
798.197266	1711.570312
798.149292	1667.248169
798.101257	1736.168945
798.053223	1606.949829
798.005310	1650.704102
797.957275	1502.679443
797.909241	1464.714233
797.861206	1370.193726
797.813232	1351.115479
797.765198	1325.760132
797.717224	1218.744751
797.669189	1152.591919
797.621155	1234.043823
797.573120	1277.794189
797.525146	1217.942383
797.477112	1195.772339
797.429016	1139.091553
797.381042	1248.715698
797.333008	1251.647095
797.284912	1220.076538
797.236877	1106.982300
797.188843	1147.560303
797.140808	1078.403687
797.092773	1137.779297
797.044800	1027.906738
796.996704	1055.937622
796.948608	1021.302551
796.900635	992.943542
796.852539	995.911804
796.804504	983.222656
796.756409	989.322266
796.708374	932.814758
796.660339	895.104309
796.612244	932.507507
796.564209	935.482605
796.516113	860.251953
796.468018	925.791382
796.419983	853.714233
796.371887	872.333435
796.323792	806.541016
796.275757	828.287476
796.227600	862.527039
796.179504	856.135803
796.131470	806.009644
796.083374	818.371033
796.035278	730.791077
795.987183	771.263489
795.939087	836.698608
795.891052	886.504639
795.842896	727.188538
795.794800	792.598450
795.746643	755.028381
795.698547	701.873535
795.650452	764.136292
795.602356	732.826294
795.554260	723.351807
795.506165	726.349915
795.458069	729.347107
795.409912	666.899780
795.361816	685.484863
795.313660	785.062317
795.265564	679.029236
795.217407	750.546204
795.169312	669.463989
795.121216	737.845642
795.073059	728.385681
795.024902	734.490112
794.976746	718.810303
794.928589	703.135681
794.880493	665.691284
794.832336	643.810120
794.784180	637.484558
794.736023	659.143616
794.687866	696.338806
794.639709	643.385498
794.591553	596.664978
794.543396	661.816040
794.495239	618.214355
794.447144	580.839294
794.398926	624.221619
794.350830	614.803467
794.302612	602.283813
794.254456	605.288513
794.206238	558.635681
794.158081	648.531067
794.109924	564.656372
794.061707	567.665222
794.013550	517.947815
793.965393	524.064270
793.917236	539.480103
793.869019	471.192230
793.820862	536.202637
793.772583	458.641022
793.724426	523.632019
793.676270	495.664490
793.628052	433.634857
793.579895	414.981995
793.531677	510.900970
793.483459	489.145630
793.435242	427.157959
793.387085	495.173859
793.338806	352.753143
793.290649	451.696991
793.242371	436.155884
793.194214	414.434326
793.145996	479.303864
793.097778	534.876648
793.049561	423.502899
793.001343	519.246277
792.953064	494.438629
792.904846	534.523499
792.856628	494.275360
792.808411	494.193756
792.760193	540.435181
792.711914	546.521301
792.663696	503.210510
792.615417	592.640869
792.567200	549.336731
792.518982	614.044678
792.470703	552.240479
792.422485	527.472168
792.374207	521.216797
792.325928	502.629028
792.277710	480.964294
792.229492	530.206360
792.181152	530.118774
792.132935	477.644409
792.084656	542.267883
792.036377	517.533875
791.988098	542.088745
791.939819	551.237793
791.891602	618.885437
791.843323	569.526794
791.795044	566.354675
791.746765	572.416138
791.698486	572.321533
791.650208	606.068359
791.601929	602.892212
791.553650	584.339783
791.505371	654.967346
791.457031	642.561279
791.408752	645.529053
791.360474	583.953552
791.312195	639.169800
791.263916	596.050232
791.215576	583.664062
791.167297	568.210510
791.118958	525.123962
791.070679	650.923279
791.022339	543.369690
790.974060	549.418640
790.925720	543.190063
790.877441	509.348267
790.829102	582.892578
790.780823	610.402344
790.732422	564.298767
790.684143	515.144165
790.635803	490.532349
790.587524	536.431030
790.539185	475.046051
790.490845	474.967499
790.442505	459.569946
790.394104	533.013000
790.345825	456.355164
790.297424	514.463013
790.249146	419.462952
790.200745	440.822418
790.152405	486.660919
790.104065	471.279144
790.055725	480.380432
790.007385	507.834137
789.958984	529.161255
789.910706	513.782593
789.862305	498.408966
789.813904	470.811554
789.765564	504.357483
789.717224	492.049194
789.668823	519.469116
789.620483	470.500031
789.572083	516.242493
789.523682	476.452698
789.475342	525.232727
789.427002	525.145813
789.378601	610.533569
789.330200	537.180603
789.281799	479.110229
789.233459	561.412048
789.185059	500.306183
789.136658	503.273499
789.088257	545.885132
789.039856	536.647400
788.991455	457.294220
788.943115	554.758484
788.894714	536.380920
788.846252	578.951721
788.797913	536.203308
788.749451	520.884033
788.701050	499.478577
788.652649	578.568359
788.604248	548.026672
788.555847	566.200439
788.507385	651.327026
788.458984	584.271423
788.410522	565.919189
788.362122	544.531006
788.313660	614.396851
788.265259	538.268494
788.216858	519.935974
788.168396	571.530823
788.119995	519.763733
788.071533	446.740448
788.023071	398.049683
787.974670	401.021790
787.926208	434.368317
787.877747	355.333374
787.829346	352.237976
787.780884	373.431854
787.732422	330.872589
787.684021	315.642639
787.635559	312.555817
787.587097	391.388550
787.538635	397.390717
787.490173	321.499512
787.441711	266.861023
787.393250	263.784790
787.344788	287.993134
787.296326	297.038422
787.247803	348.507721
787.199341	302.999969
787.150879	254.477783
787.102417	230.203644
787.053894	239.250961
787.005432	196.819427
786.956909	224.034210
786.908508	193.727203
786.859985	190.668594
786.811523	260.234619
786.763000	229.936646
786.714478	175.448883
786.666016	260.105194
786.617493	196.558548
786.569031	175.361618
786.520508	226.723114
786.471985	208.550690
786.423523	250.823715
786.375000	190.352692
786.326477	196.363068
786.277954	217.473785
786.229431	217.437714
786.180908	199.284851
786.132446	193.213867
786.083923	172.052551
786.035339	196.167740
785.986816	187.082809
785.938354	208.170517
785.889771	165.905502
785.841248	171.909912
785.792725	153.788605
785.744202	192.957611
785.695679	174.838821
785.647095	198.921509
785.598572	198.888504
785.550049	183.790695
785.501465	153.635574
785.452942	198.789520
785.404358	213.813843
785.355835	201.734512
785.307251	219.763809
785.258728	219.727341
785.210205	180.567841
785.161621	150.448227
785.113037	186.524841
785.064453	204.541672
785.015930	153.380798
784.967346	183.425003
784.918762	168.362213
784.870239	183.364120
784.821594	177.322739
784.773071	162.268448
784.724487	210.313065
784.675903	195.258270
784.627319	198.229324
784.578735	222.220230
784.530151	183.151123
784.481567	222.146439
784.432983	156.076981
784.384399	183.059906
784.335754	195.031433
784.287170	158.999222
784.238586	167.971283
784.190002	173.941360
784.141357	131.933594
784.092773	197.867523
784.044128	119.899796
783.995605	134.864868
783.946960	182.786453
783.898376	203.728088
783.849670	221.667267
783.801086	119.800240
783.752502	194.643051
783.703857	161.676590
783.655212	149.675674
783.606628	149.650818
783.558044	143.640915
783.509338	185.505341
783.460693	164.533844
783.412109	188.434723
783.363464	116.630684
783.314819	173.421936
783.266174	191.330338
783.217529	116.572548
783.168884	125.518799
783.120300	203.187134
783.071594	209.128464
783.022949	197.145493
782.974304	149.327820
782.925659	214.996323
782.877014	191.076065
782.828369	182.089111
782.779663	176.089691
782.731018	155.171890
782.682373	167.080414
782.633667	184.951126
782.585022	143.164169
782.536377	172.961273
782.487671	152.061340
782.439026	146.073853
782.390320	172.875000
782.341614	110.263985
782.292969	181.756348
782.244263	181.726120
782.195557	157.866928
782.146912	193.578171
782.098206	157.814407
782.049500	166.719574
782.000854	202.411514
781.952087	208.330139
781.903442	208.295486
781.854736	187.434753
781.806030	181.454254
781.757324	199.269058
781.708618	199.235901
781.659912	187.310043
781.611206	202.142288
781.562500	205.080841
781.513794	231.791946
781.465027	178.271820
781.416382	178.242157
781.367615	148.510422
781.318909	196.001129
781.270203	160.337875
781.221436	178.123535
781.172791	181.062119
781.124023	157.290085
781.075256	163.198395
781.026550	154.270981
780.977844	172.042831
780.929077	148.288101
780.880310	174.950836
780.831604	195.675125
780.782837	157.106903
780.734131	157.080750
780.685364	133.348236
780.636597	151.102844
780.587891	165.889221
780.539062	154.014343
780.490356	156.950012
780.441589	124.354774
780.392822	103.611725
780.344055	150.951935
780.295288	130.211349
780.246521	171.613663
780.197815	127.209625
780.148987	147.893524
780.100281	150.826279
780.051453	177.413116
780.002686	115.299324
779.953918	97.544716
779.905151	186.190704
779.856384	162.520355
779.807556	141.812317
779.758789	153.604416
779.710022	150.625381
779.661194	124.023773
779.612427	88.573647
779.563599	115.126556
779.514832	156.427963
779.466003	147.548965
779.417236	109.168037
779.368408	135.699814
779.319580	147.475204
779.270813	173.991745
779.221985	171.014221
779.173218	170.985718
779.124390	200.432602
779.075562	123.775978
779.026733	212.152023
778.977966	238.631226
778.929138	173.788834
778.880310	179.650024
778.831482	238.511902
778.782593	244.360352
778.733826	238.432388
778.684937	247.221985
778.636108	226.582367
778.587341	255.965958
778.538513	173.557175
778.489624	205.880951
778.440796	152.914627
778.391968	158.769485
778.343079	132.285828
778.294250	108.750214
778.245422	146.935242
778.196594	143.972519
778.147705	88.131737
778.098816	132.175552
778.049988	108.659546
778.001099	123.322693
777.952271	140.916718
777.903381	55.770226
777.854553	164.347977
777.805664	117.371834
777.756836	149.624115
777.707886	173.065689
777.659058	146.641357
777.610168	114.361176
777.561279	70.364365
777.512451	96.734856
777.463562	178.783081
777.414673	123.076004
777.365784	76.177193
777.316895	123.034927
777.268005	143.516785
777.219116	149.349686
777.170227	117.117455
777.121277	114.170464
777.072388	131.713150
777.023560	152.176468
776.974670	160.929001
776.925720	122.870728
776.876831	117.000198
776.827881	76.037437
776.778992	131.581284
776.730103	134.482849
776.681152	178.306168
776.632263	128.592819
776.583313	67.207748
776.534424	163.608932
776.485535	166.502701
776.436584	122.665710
776.387695	140.165970
776.338684	131.383652
776.289795	67.140427
776.240906	96.315834
776.191956	128.399658
776.143005	134.213577
776.094055	151.694351
776.045105	90.418068
775.996216	113.732758
775.947266	90.387863
775.898315	145.762512
775.849365	163.226746
775.800415	131.142426
775.751465	154.430832
775.702515	128.185303
775.653564	78.646019
775.604553	113.580826
775.555664	136.856583
775.506653	148.479126
775.457703	116.434761
775.408752	133.877594
775.359802	136.765121
775.310852	101.829338
775.261841	93.085548
775.212891	180.323105
775.163879	95.962379
775.114929	110.483665
775.065918	81.395409
775.016968	148.231140
774.968018	58.120140
774.918945	142.370529
774.869995	124.916519
774.820984	142.322922
774.772034	98.738174
774.723022	90.010925
774.674011	136.445358
774.625061	110.299080
774.576050	69.650925
774.527039	130.573639
774.478027	139.255264
774.429016	107.324646
774.380005	182.711395
774.330994	110.188438
774.281982	92.774742
774.232971	124.645210
774.183960	139.115555
774.134949	144.887802
774.085876	95.609955
774.036926	115.871460
773.987915	124.540977
773.938904	127.415962
773.889832	133.185303
773.840820	153.426956
773.791809	147.612564
773.742737	121.542946
773.693665	135.989578
773.644653	130.181000
773.595581	127.266785
773.546570	101.218002
773.497559	161.921692
773.448486	124.311920
773.399475	127.181602
773.350403	118.490295
773.301331	104.022842
773.252319	89.560234
773.203247	118.430801
773.154236	153.067841
773.105103	144.379456
773.056030	161.677917
773.007019	103.918396
772.957947	152.965363
772.908875	72.141388
772.859802	103.866203
772.810730	106.733505
772.761658	106.715630
772.712585	141.302429
772.663513	126.862572
772.614441	115.310295
772.565369	72.056862
772.516296	181.552887
772.467163	155.590698
772.418091	126.756363
772.368958	172.820633
772.319946	123.834038
772.270813	92.140129
772.221741	109.398071
772.172668	94.987671
772.123535	164.042130
772.074402	97.833298
772.025330	106.447807
771.976257	103.553482
771.927124	103.536133
771.877991	112.145348
771.828918	149.502075
771.779785	114.982323
771.730652	137.955658
771.681580	120.690971
771.632446	163.767441
771.583313	114.905258
771.534180	83.292351
771.485046	149.326767
771.435974	120.589859
771.386780	132.052460
771.337708	172.213470
771.288513	66.004097
771.239380	109.031967
771.190247	94.669777
771.141113	83.180702
771.091980	100.373672
771.042908	143.366913
770.993713	140.476028
770.944519	128.986954
770.895447	80.245094
770.846313	114.616623
770.797119	108.867531
770.747925	94.527000
770.698792	120.286911
770.649658	80.177826
770.600525	120.246559
770.551331	120.226395
770.502197	134.516495
770.453003	123.047630
770.403870	85.832787
770.354675	105.842674
770.305481	120.125580
770.256287	105.807159
770.207153	137.240311
770.157959	111.489044
770.108765	105.753906
770.059631	94.305229
770.010437	131.433716
769.961243	102.843903
769.912048	151.383667
769.862854	125.655914
769.813660	145.622177
769.764465	137.033173
769.715271	105.612007
769.666077	148.402771
769.616882	128.403915
769.567688	154.058838
769.518494	148.328049
769.469238	119.783310
769.420044	85.545143
769.370850	122.594116
769.321594	94.068062
769.272461	153.903702
769.223206	105.434837
769.173950	125.360909
769.124817	113.945328
769.075562	128.166962
769.026306	153.774536
768.977112	162.290298
768.927856	130.949127
768.878662	119.542160
768.829407	173.591599
768.780212	102.430290
768.730957	113.792320
768.681763	105.240211
768.632446	82.471718
768.583252	127.951851
768.533997	159.202225
768.484741	144.963379
768.435486	130.729309
768.386230	88.085388
768.337036	119.321442
768.287781	119.301392
768.238525	116.441315
768.189209	122.100853
768.140015	136.275726
768.090759	136.252823
768.041443	124.877426
767.992188	136.207016
767.942932	73.766403
767.893677	116.304390
767.844421	107.776192
767.795105	119.101036
767.745850	150.268890
767.696594	107.721855
767.647278	102.035126
767.598022	121.854797
767.548767	127.501022
767.499451	104.816544
767.450134	133.122955
767.400879	99.117447
767.351562	104.763680
767.302307	133.055817
767.252991	116.050446
767.203735	164.141312
767.154419	116.011414
767.105103	141.453537
767.055786	135.772552
767.006470	147.062195
766.957214	110.278091
766.907837	127.222549
766.858582	104.587608
766.809265	149.789490
766.759949	155.415771
766.710632	129.962234
766.661316	107.342041
766.612000	141.215759
766.562683	87.539040
766.513367	121.404686
766.464050	98.801140
766.414673	158.055222
766.365356	93.124008
766.316040	146.716171
766.266724	121.302567
766.217346	84.615456
766.168030	112.801620
766.118713	169.173950
766.069336	76.115463
766.020020	118.381897
765.970703	90.180550
765.921326	132.430389
765.871948	101.418961
765.822632	87.318291
765.773254	92.936081
765.723938	118.262367
765.674561	106.981270
765.625244	36.592693
765.575867	98.502197
765.526489	115.368858
765.477112	104.095833
765.427795	92.826591
765.378418	115.310585
765.329041	126.539078
765.279663	134.952286
765.230286	73.086845
765.180908	118.043472
765.131531	115.213501
765.082153	123.622932
765.032715	171.357468
764.983337	157.285263
764.934021	115.135887
764.884644	137.578247
764.835205	87.024628
764.785828	89.816742
764.736450	86.995308
764.687073	95.398132
764.637634	143.073074
764.588257	112.195267
764.538818	148.633682
764.489441	123.373199
764.440063	89.710846
764.390625	109.316658
764.341187	131.718384
764.291809	112.081856
764.242432	109.261391
764.192932	148.458405
764.143555	126.028336
764.094116	112.006302
764.044739	83.990562
763.995300	128.763809
763.945862	139.937073
763.896484	95.141167
763.847046	109.114113
763.797607	153.852921
763.748169	100.686752
763.698730	167.782944
763.649292	125.815994
763.599854	134.181091
763.550415	83.849037
763.500977	97.807381
763.451538	89.408806
763.402100	159.232574
763.352661	136.861053
763.303162	117.289680
763.253723	150.775574
763.204285	184.250168
763.154846	161.889496
763.105408	106.047638
763.055908	61.385643
763.006470	156.227997
762.957031	78.100815
762.907532	94.820702
762.858032	92.016327
762.808594	105.940315
762.759094	86.410408
762.709656	97.543671
762.660156	103.100197
762.610718	128.156982
762.561218	116.993149
762.511780	80.767349
762.462280	77.969101
762.412781	94.660782
762.363342	94.644806
762.313843	128.027237
762.264343	125.222885
762.214783	164.153397
762.165344	102.926277
762.115845	72.314362
762.066345	119.576630
762.016846	136.238724
761.967346	113.976425
761.917847	158.428268
761.868286	88.927162
761.818848	119.475693
761.769287	108.343376
761.719788	99.992378
761.670288	83.312904
761.620789	77.745575
761.571228	124.927139
761.521729	119.354652
761.472229	97.132729
761.422668	133.188095
761.373169	86.002777
761.323608	83.214432
761.274109	144.213974
761.224609	146.962479
761.175049	141.392838
761.125488	74.842377
761.075989	97.001503
761.026489	91.443100
760.976929	88.657112
760.927307	119.112862
760.877808	132.940720
760.828308	80.304771
760.778687	105.209160
760.729187	130.105118
760.679626	105.173592
760.630066	143.897430
760.580566	130.039154
760.530945	118.951874
760.481384	132.761032
760.431824	99.553940
760.382263	99.537109
760.332703	149.280411
760.283142	105.031418
760.233521	99.486618
760.184021	107.758942
760.134460	99.452972
760.084839	99.436150
760.035278	82.849442
759.985657	138.059052
759.936096	118.710701
759.886536	143.532837
759.836975	110.391197
759.787354	74.501457
759.737732	162.771927
759.688232	121.368698
759.638611	79.979469
759.588989	115.812744
759.539368	129.578049
759.489807	118.530067
759.440186	96.461632
759.390564	140.534592
759.341003	101.939217
759.291443	96.412666
759.241760	134.954895
759.192200	112.902328
759.142578	129.402710
759.092957	101.852974
759.043335	118.349640
758.993713	96.314796
758.944092	132.066498
758.894470	88.029427
758.844849	93.515434
758.795227	107.249542
758.745667	109.980904
758.695984	112.711334
758.646362	93.452110
758.596741	131.910049
758.547058	90.672806
758.497437	107.140617
758.447815	63.174793
758.398193	112.596863
758.348511	137.289993
758.298889	126.285400
758.249268	145.478088
758.199646	109.776192
758.149963	128.965179
758.100281	131.686798
758.050659	109.720406
758.000977	142.612366
757.951355	128.877792
757.901672	79.506874
757.851990	98.681458
757.802368	115.108864
757.752686	147.972031
757.703003	71.233719
757.653320	49.307293
757.603699	120.508514
757.554016	101.319534
757.504333	150.584595
757.454651	134.134445
757.404968	84.846176
757.355286	125.879440
757.305603	123.122055
757.255920	117.630020
757.206238	112.139839
757.156616	109.386177
757.106873	136.709534
757.057190	112.082817
757.007446	169.462341
756.957764	114.777611
756.908081	109.293472
756.858398	109.274940
756.808716	84.673714
756.758972	111.968826
756.709290	90.105965
756.659607	117.390884
756.609924	120.100533
756.560120	109.163780
756.510437	90.044846
756.460693	122.767593
756.411072	73.648064
756.361328	84.544540
756.311584	149.972931
756.261902	103.600082
756.212097	130.841049
756.162415	111.741104
756.112671	149.871170
756.062927	130.774460
756.013184	122.580254
755.963501	119.835907
755.913757	87.138596
755.864014	127.963089
755.814270	81.664703
755.764587	117.032875
755.714844	130.619171
755.665100	125.155464
755.615356	76.168655
755.565552	130.552673
755.515808	119.652962
755.466064	146.821884
755.416321	119.612335
755.366577	116.874023
755.316833	163.052353
755.267029	124.985573
755.217285	89.648338
755.167542	114.078506
755.117737	114.059135
755.067993	97.748367
755.018188	114.020393
754.968445	62.429134
754.918701	75.987778
754.868896	130.242630
754.819092	146.498077
754.769348	157.323059
754.719543	108.480225
754.669739	108.461800
754.619995	132.843124
754.570190	108.424942
754.520386	143.638641
754.470642	116.517212
754.420837	75.858780
754.371033	111.060051
754.321228	138.124390
754.271484	127.269470
754.221619	121.833038
754.171875	127.226219
754.122070	113.672188
754.072205	121.770927
754.022400	105.516869
753.972595	108.204033
753.922852	132.527405
753.872986	151.434143
753.823181	108.148857
753.773376	110.833733
753.723572	113.517685
753.673706	89.177299
753.623901	116.180969
753.574097	102.654099
753.524292	105.337601
753.474426	118.822212
753.424561	81.001366
753.374756	153.876419
753.324951	124.159851
753.275085	72.864037
753.225281	124.117622
753.175415	105.212257
753.125610	102.497070
753.075745	124.054291
753.025879	110.551315
752.976074	196.801788
752.926208	91.645508
752.876343	99.714912
752.826477	105.087021
752.776672	72.740173
752.726807	91.583153
752.676941	102.340218
752.627075	113.093620
752.577209	110.382126
752.527344	123.822289
752.477539	115.727219
752.427673	145.307114
752.377808	83.402855
752.327881	94.148483
752.278015	115.648445
752.228149	88.738350
752.178284	150.560654
752.128357	161.287521
752.078491	139.758713
752.028625	139.734924
751.978760	75.229065
751.928833	96.706619
751.878967	115.491013
751.829102	112.785965
751.779175	107.396912
751.729309	104.694153
751.679382	177.144547
751.629456	120.759804
751.579590	131.471603
751.529663	93.892296
751.479797	123.380280
751.429871	120.677536
751.379944	99.206848
751.330078	123.317230
751.280212	112.574814
751.230225	144.714386
751.180298	85.742058
751.130371	107.159309
751.080505	99.105469
751.030579	107.122795
750.980652	112.459763
750.930725	107.086281
750.880859	112.421432
750.830872	88.316071
750.780945	99.004173
750.731018	85.610634
750.681091	109.669930
750.631165	112.325653
750.581177	85.566856
750.531311	114.960861
750.481384	130.979584
750.431396	133.629852
750.381409	128.262772
750.331482	101.524048
750.281616	114.862892
750.231628	104.160202
750.181641	117.494034
750.131714	106.794540
750.081787	93.429291
750.031799	101.420212
749.981812	90.728920
749.931885	88.045403
749.881958	136.046951
749.831970	88.015366
749.781982	117.333801
749.732056	85.319115
749.682068	114.628006
749.632080	98.616570
749.582092	138.572617
749.532104	95.918518
749.482178	114.549789
749.432190	93.222290
749.382202	119.836777
749.332214	135.791840
749.282227	157.065704
749.232239	117.113754
749.182251	122.416206
749.132263	122.395309
749.082275	77.149094
749.032288	117.033813
748.982239	117.013832
748.932312	132.947556
748.882263	127.607872
748.832275	101.005646
748.782288	98.330811
748.732239	119.571114
748.682251	74.387100
748.632263	154.061249
748.582214	148.723389
748.532227	116.834137
748.482178	76.991165
748.432190	90.250084
748.382141	111.466362
748.332153	103.486794
748.282104	87.550797
748.232117	74.272835
748.182068	129.955246
748.132080	127.281357
748.082031	129.910858
748.031982	148.444183
747.981934	116.614784
747.931885	113.944977
747.881836	108.626640
747.831848	98.012169
747.781799	100.643944
747.731812	145.643982
747.681702	90.019073
747.631653	116.475357
747.581604	89.988304
747.531555	119.081802
747.481567	126.998878
747.431458	119.041100
747.381409	84.636978
747.331360	97.844772
747.281311	121.624054
747.231201	137.464554
747.181152	76.649818
747.131104	132.132263
747.081055	87.192383
747.030945	76.610504
746.980957	92.445145
746.930847	147.886932
746.880798	150.502029
746.830688	145.196411
746.780640	97.660881
746.730530	81.809990
746.680420	92.350311
746.630310	121.353935
746.580261	110.782463
746.530212	100.214607
746.480103	145.022644
746.429993	123.907234
746.379883	137.065399
746.329834	123.864838
746.279724	142.288437
746.229614	121.187935
746.179504	97.460571
746.129456	144.849030
746.079346	113.226219
746.029236	123.737709
745.979126	86.864799
745.929016	123.695351
745.878906	94.729156
745.828796	139.438507
745.778687	128.892776
745.728577	89.420486
745.678406	141.996460
745.628296	99.906326
745.578186	134.061859
745.528076	70.961769
745.477966	94.599487
745.427795	115.601799
745.377686	86.686501
745.327576	126.067863
745.277405	128.672241
745.227295	120.773659
745.177124	68.251678
745.127014	97.110756
745.076904	107.590782
745.026733	73.464043
744.976562	94.437592
744.926453	141.632111
744.876282	120.628906
744.826111	73.413712
744.775940	146.802261
744.725830	91.735695
744.675659	131.028534
744.625488	167.687790
744.575378	102.167236
744.525208	133.580414
744.475037	78.563248
744.424866	115.206345
744.374695	157.072632
744.324524	130.871429
744.274353	138.699936
744.224182	62.796749
744.174011	99.411140
744.123840	57.543949
744.073669	133.374466
744.023499	96.745277
743.973267	94.114403
743.923157	104.553627
743.872925	99.308914
743.822754	135.873108
743.772583	104.499847
743.722351	94.033737
743.672180	114.910408
743.622009	86.168022
743.571777	101.817474
743.521606	109.630775
743.471375	114.831589
743.421204	148.733582
743.370972	104.356537
743.320801	104.338638
743.270569	96.496681
743.220398	93.872551
743.170166	122.534805
743.119995	112.087074
743.069702	117.280296
743.019531	114.654388
742.969299	106.818710
742.919067	106.800377
742.868835	109.386482
742.818604	104.159721
742.768433	98.934753
742.718201	111.933266
742.667969	122.324661
742.617737	109.292633
742.567505	114.477386
742.517273	72.836739
742.467041	114.438087
742.416809	156.025146
742.366577	57.199394
742.316345	88.383888
742.266052	109.161346
742.215820	140.326202
742.165588	140.302094
742.115356	101.311890
742.065063	96.099899
742.014832	127.245575
741.964600	119.434509
741.914307	116.818039
741.864075	90.842865
741.813782	119.372971
741.763489	96.000893
741.713257	119.331955
741.662964	142.654999
741.612732	129.664078
741.562439	108.899117
741.512207	93.326057
741.461914	103.677803
741.411682	116.617477
741.361389	101.051109
741.311096	124.349228
741.260803	113.967201
741.210510	134.665359
741.160278	139.820755
741.109985	176.040314
741.059692	98.358559
741.009399	116.457214
740.959106	121.612183
740.908813	106.068977
740.858521	116.397156
740.808228	121.549461
740.757935	124.114273
740.707642	121.507660
740.657349	124.071587
740.606995	93.037689
740.556702	111.109238
740.506409	46.502846
740.456116	113.654068
740.405762	92.973694
740.355469	113.614975
740.305176	108.431999
740.254822	118.738426
740.204529	116.137169
740.154175	123.858337
740.103882	95.457710
740.053589	82.543808
740.003235	123.794411
739.952942	113.458687
739.902588	126.329971
739.852295	105.686478
739.801941	154.636520
739.751587	115.957428
739.701233	77.291649
739.650879	118.493462
739.600586	131.350571
739.550232	61.801392
739.499878	102.984589
739.449524	131.282745
739.399170	105.522865
739.348816	120.944405
739.298523	146.652008
739.248108	146.626755
739.197815	84.874550
739.147461	64.287834
739.097046	110.556030
739.046692	79.689453
738.996399	105.377579
738.945984	123.347626
738.895630	113.049179
738.845276	95.047707
738.794861	100.168167
738.744507	148.942383
738.694153	128.376480
738.643738	148.891068
738.593384	130.898895
738.543030	112.912926
738.492615	102.630424
738.442261	107.743378
738.391846	97.465302
738.341492	141.043900
738.291077	135.891602
738.240662	120.486877
738.190369	82.019478
738.139954	120.445351
738.089539	125.549034
738.039124	135.774536
737.988770	99.892334
737.938354	120.362320
737.887939	140.825241
737.837524	89.600609
737.787109	151.014984
737.736755	135.634140
737.686340	92.112961
737.635925	161.169891
737.585510	153.468658
737.535095	122.753754
737.484680	104.834084
737.434265	104.816002
737.383850	117.578156
737.333374	92.001816
737.282959	107.316940
737.232544	109.853149
737.182129	122.605614
737.131714	158.338272
737.081299	109.796303
737.030823	66.377007
736.980408	107.205894
736.929993	142.916534
736.879517	107.168900
736.829102	137.764816
736.778625	79.073555
736.728210	102.012787
736.677795	140.243378
736.627319	132.570847
736.576904	96.861977
736.526428	94.296692
736.475952	127.405968
736.425537	86.621101
736.375061	112.078545
736.324585	73.857201
736.274170	124.771652
736.223694	94.199059
736.173218	119.637604
736.122803	117.071899
736.072266	106.873276
736.021851	83.957359
735.971375	96.661476
735.920898	89.014931
735.870361	109.342308
735.819946	94.068993
735.769470	78.800949
735.718994	83.870384
735.668518	111.807861
735.618042	147.357635
735.567566	127.010498
735.517029	152.386261
735.466553	109.191284
735.416077	96.477951
735.365540	88.845917
735.315063	149.742950
735.264587	116.728561
735.214111	106.559830
735.163635	126.835014
735.113098	154.711975
735.062622	131.862823
735.012146	121.698486
734.961609	116.607559
734.911133	83.638786
734.860596	114.033173
734.810059	116.547089
734.759521	106.394157
734.709045	121.572304
734.658508	126.615913
734.608032	136.721542
734.557495	101.257706
734.506958	98.709190
734.456421	83.508713
734.405884	103.735306
734.355408	98.657982
734.304871	80.936134
734.254333	78.393318
734.203796	141.589233
734.153259	144.092682
734.102722	63.187614
734.052185	126.353363
734.001648	154.124435
733.951111	108.626289
733.900574	83.349937
733.850037	103.538063
733.799500	123.719200
733.748962	171.662247
733.698364	123.676384
733.647827	138.796402
733.597229	88.309692
733.546692	131.180267
733.496155	141.246597
733.445618	95.829315
733.395020	108.419662
733.344482	100.838043
733.293884	115.943672
733.243347	55.441719
733.192810	93.226746
733.142212	120.921867
733.091614	93.194466
733.041077	108.288322
732.990479	123.376953
732.939880	113.285744
732.889343	118.300171
732.838745	108.213326
732.788147	108.194580
732.737610	108.175835
732.687012	120.733505
732.636414	140.831360
732.585815	98.061989
732.535217	108.100891
732.484680	118.136322
732.434021	163.351700
732.383423	150.760056
732.332825	128.123840
732.282227	128.101639
732.231628	115.522636
732.181030	62.773159
732.130432	123.014069
732.079834	130.522919
732.029175	97.875214
731.978577	80.293945
731.927979	127.946297
731.877380	70.232849
731.826782	117.870415
731.776184	67.701050
731.725525	127.857590
731.674866	97.756500
731.624268	97.739548
731.573608	120.273964
731.523071	100.210922
731.472412	127.746765
731.421753	107.689377
731.371155	170.269943
731.320496	130.183838
731.269897	147.682968
731.219238	92.598679
731.168579	122.609406
731.117981	82.559357
731.067322	135.073685
731.016663	122.545601
730.966003	87.517387
730.915344	125.003143
730.864685	87.487015
730.814087	124.959763
730.763428	97.451698
730.712769	127.414719
730.662109	127.392609
730.611450	102.395889
730.560791	129.845413
730.510132	149.795624
730.459473	114.823380
730.408813	84.854721
730.358154	92.325867
730.307434	82.330399
730.256775	122.226936
730.206116	162.109619
730.155457	109.716690
730.104797	104.711380
730.054077	134.605545
730.003418	122.120850
729.952698	92.197685
729.902039	122.078438
729.851379	119.566269
729.800659	154.412933
729.750000	112.054436
729.699280	117.014305
729.648621	116.993973
729.597900	139.372864
729.547241	89.581268
729.496521	104.493324
729.445862	124.375198
729.395142	119.379440
729.344421	124.331978
729.293701	114.365540
729.242981	84.516357
729.192322	62.133583
729.141541	126.730476
729.090820	121.739487
729.040161	119.234276
728.989441	101.828239
728.938721	86.911438
728.888062	139.034119
728.837280	84.398895
728.786560	146.431442
728.735840	64.517891
728.685120	111.646164
728.634338	111.626755
728.583679	109.127174
728.532898	123.986588
728.482178	84.296219
728.431458	94.197029
728.380737	116.486595
728.330017	116.466331
728.279236	106.535767
728.228516	116.425812
728.177795	138.695984
728.127014	94.098755
728.076233	84.178978
728.025513	111.393967
727.974731	96.524643
727.924011	94.033287
727.873291	86.594528
727.822510	133.579742
727.771790	111.297081
727.721008	121.169060
727.670288	89.006668
727.619507	86.519203
727.568726	116.162704
727.517944	79.075729
727.467163	135.887756
727.416382	150.685638
727.365601	98.793045
727.314880	113.592224
727.264099	133.324173
727.213318	111.084137
727.162537	113.532898
727.111755	120.916153
727.060974	130.764084
727.010193	140.608582
726.959351	78.924400
726.908630	88.774483
726.857849	98.621132
726.807007	138.045532
726.756226	81.334091
726.705444	93.641121
726.654663	140.437210
726.603882	155.193039
726.553040	105.906944
726.502258	145.288864
726.451416	98.483757
726.400635	140.314896
726.349854	86.143257
726.299011	95.971474
726.248230	110.717010
726.197388	91.018120
726.146606	54.109451
726.095764	115.577309
726.044922	76.218552
725.994141	135.202896
725.943359	86.023201
725.892517	90.922958
725.841675	147.416931
725.790833	115.456459
725.739990	83.507133
725.689209	88.403893
725.638367	137.493195
725.587524	103.101906
725.536682	44.178825
725.485840	127.605461
725.434998	134.943771
725.384216	105.483086
725.333313	100.559357
725.282532	132.420929
725.231689	93.168839
725.180847	105.409500
725.130005	85.783463
725.079102	112.724304
725.028259	127.405235
724.977417	88.188232
724.926575	110.216057
724.875671	105.299187
724.824829	102.832413
724.773926	117.502251
724.723145	100.348984
724.672241	88.095924
724.621399	83.187180
724.570496	139.436523
724.519653	122.291382
724.468811	85.589020
724.417908	122.248680
724.367004	110.004601
724.316162	163.756027
724.265259	109.966187
724.214417	127.049850
724.163513	129.470505
724.112671	134.332718
724.061768	124.541306
724.010864	109.870193
723.960022	87.880798
723.909058	95.187569
723.858215	100.051506
723.807312	85.394897
723.756409	114.653114
723.705505	80.487061
723.654602	92.665871
723.603699	87.773384
723.552795	97.508942
723.501892	124.302170
723.451050	92.601120
723.400085	112.076500
723.349182	133.981094
723.298279	102.294945
723.247375	107.147400
723.196411	97.389702
723.145508	55.989288
723.094604	114.392899
723.043701	68.137047
722.992798	109.486816
722.941833	109.467674
722.890930	109.448532
722.839966	111.861160
722.789062	104.547577
722.738159	138.562088
722.687195	104.511017
722.636230	25270.232422
722.585388	2662.883789
722.534424	109.314613
722.483459	85.007607
722.432556	99.562912
722.381592	109.257256
722.330688	89.818024
722.279724	99.510666
722.228760	72.799942
722.177795	160.131851
722.126831	104.310074
722.075867	84.888687
722.024963	104.273567
721.973999	72.736267
721.923035	123.630013
721.872070	87.252968
721.821106	99.354042
721.770142	87.222427
721.719177	101.741684
721.668213	118.677849
721.617249	108.970779
721.566284	121.057449
721.515320	111.353348
721.464294	72.609032
721.413330	94.375214
721.362366	116.133774
721.311401	116.113434
721.260437	104.000069
721.209473	96.727303
721.158447	89.457085
721.107483	116.032104
721.056458	101.510307
721.005493	135.323364
720.954468	108.722939
720.903564	74.884903
720.852539	103.854408
720.801514	99.006622
720.750549	106.232391
720.699524	115.869576
720.648560	118.262794
720.597534	65.153793
720.546509	123.046707
720.495544	108.551598
720.444519	110.944405
720.393555	113.336365
720.342529	130.193420
720.291504	156.686844
720.240479	122.917351
720.189453	130.124969
720.138428	79.506866
720.087402	139.714844
720.036438	98.746628
719.985352	115.585533
719.934326	113.157654
719.883362	93.880310
719.832275	89.050316
719.781250	91.441040
719.730225	103.454605
719.679199	110.652954
719.628174	74.557388
719.577148	98.590858
719.526123	105.786263
719.475037	124.998199
719.424011	69.698303
719.372986	96.118721
719.321899	120.127319
719.270874	88.878616
719.219788	108.076645
719.168823	74.439735
719.117737	93.633553
719.066711	124.822823
719.015625	124.800911
718.964539	103.182640
718.913513	136.752975
718.862427	107.943924
718.811401	110.323303
718.760315	67.141525
718.709290	131.861984
718.658142	105.471069
718.607117	105.452545
718.556030	136.584991
718.505005	110.207130
718.453918	124.560089
718.402771	71.848969
718.351746	102.965439
718.300659	114.917969
718.249573	76.598526
718.198486	124.450737
718.147400	126.821739
718.096313	64.595947
718.045227	112.425041
717.994141	124.363304
717.943054	93.256088
717.891968	141.054932
717.840881	83.661949
717.789795	124.275909
717.738708	117.085564
717.687561	86.006927
717.636475	76.437164
717.585388	102.694389
717.534302	114.615448
717.483154	74.009460
717.432007	119.349113
717.380920	85.916252
717.329834	104.990295
717.278687	62.028812
717.227600	102.568069
717.176453	95.395386
717.125366	109.685402
717.074219	88.209694
717.023132	92.961433
716.971985	116.777161
716.920837	83.397583
716.869751	83.382919
716.818604	114.333595
716.767517	78.590523
716.716370	128.580048
716.665222	80.943565
716.614136	104.732063
716.562988	33.317974
716.511841	92.798027
716.460693	121.329910
716.409485	95.143967
716.358398	126.043571
716.307251	73.710625
716.256042	130.753891
716.204895	76.061600
716.153809	114.072319
716.102661	109.300064
716.051453	125.910515
716.000366	95.010071
715.949158	116.366852
715.898010	106.848701
715.846863	125.821861
715.795715	80.701698
715.744507	137.643356
715.693359	85.418762
715.642151	90.148376
715.591003	83.016769
715.539856	83.002151
715.488647	101.956108
715.437500	123.274040
715.386353	85.328537
715.335144	116.121155
715.283936	111.361893
715.232788	104.235321
715.181580	71.057014
715.130432	42.626694
715.079285	116.018890
715.028015	134.936966
714.976868	115.978004
714.925659	139.622375
714.874451	111.204994
714.823303	127.744926
714.772095	82.783043
714.720886	113.511017
714.669678	101.669022
714.618469	120.562935
714.567261	85.088242
714.516052	113.430984
714.464905	99.234612
714.413635	96.854805
714.362427	122.818573
714.311218	115.712479
714.260010	82.637192
714.208801	84.983269
714.157593	103.850113
714.106384	115.630867
714.055176	122.688660
714.003906	129.743958
713.952698	108.493988
713.901489	122.623741
713.850281	103.740242
713.799011	96.649986
713.747803	87.205330
713.696594	98.972366
713.645325	96.598831
713.594055	124.849625
713.542847	124.827591
713.491577	77.709122
713.440369	127.137939
713.389160	129.469482
713.337891	122.385910
713.286621	105.892181
713.235413	87.051537
713.184143	72.922195
713.132874	112.891846
713.081665	136.386902
713.030396	91.692238
712.979126	133.988068
712.927917	94.010109
712.876648	84.594154
712.825378	93.976906
712.774109	122.148399
712.722778	105.686676
712.671570	108.016182
712.620300	91.562759
712.569031	131.451508
712.517761	100.918144
712.466492	98.553795
712.415222	82.113655
712.363953	133.704315
712.312622	107.882668
712.261353	128.967346
712.210083	105.500092
712.158813	140.641922
712.107544	107.806419
712.056213	100.757751
712.004944	74.969261
711.953674	79.640755
711.902344	74.942757
711.851074	110.052711
711.799805	100.668724
711.748474	84.265892
711.697144	70.209160
711.645874	105.295120
711.594604	79.542244
711.543274	93.562561
711.492004	144.996323
711.440674	91.191231
711.389404	123.904625
711.338074	151.931625
711.286743	123.860794
711.235413	119.165718
711.184082	112.136131
711.132812	112.116287
711.081482	109.761108
711.030212	123.751266
710.978821	130.732925
710.927490	137.712097
710.876221	98.014992
710.824829	107.330750
710.773560	104.978889
710.722229	102.627861
710.670898	107.273773
710.619568	135.234299
710.568237	149.197632
710.516907	107.216812
710.465515	67.581238
710.414185	86.209076
710.362854	116.478127
710.311523	130.432404
710.260193	93.149506
710.208862	111.759605
710.157471	79.149033
710.106140	104.737526
710.054810	104.718971
710.003418	130.293869
709.952087	79.092972
709.900757	106.989189
709.849365	137.200958
709.797974	118.576424
709.746643	92.984642
709.695251	92.968163
709.643921	116.189613
709.592529	92.935219
709.541199	120.794373
709.489807	97.547401
709.438477	97.530113
709.387024	90.547623
709.335693	134.636703
709.284302	55.701862
709.232910	90.499481
709.181519	81.203087
709.130188	127.582230
709.078796	97.409157
709.027405	102.029594
708.976013	57.961079
708.924622	104.311447
708.873230	129.786774
708.821838	129.763763
708.770447	111.206352
708.719116	101.921082
708.667664	94.955070
708.616272	78.729263
708.564880	81.030449
708.513489	99.534035
708.462036	87.944710
708.410706	92.556953
708.359253	97.167557
708.307861	108.715828
708.256470	106.383850
708.205017	71.680740
708.153625	110.969841
708.102234	94.769913
708.050781	106.308350
707.999329	92.425636
707.947937	122.442230
707.896545	36.957130
707.845093	127.017586
707.793701	80.815025
707.742249	99.269402
707.690857	99.251778
707.639404	113.080780
707.587952	106.138618
707.536499	94.585014
707.485107	89.955132
707.433655	117.612740
707.382202	66.865959
707.330750	101.433777
707.279297	87.586334
707.227905	85.266289
707.176453	87.555222
707.125061	59.895561
707.073547	115.163315
707.022095	115.142853
706.970642	75.980782
706.919250	115.101936
706.867737	98.970078
706.816345	103.554932
706.764832	85.130028
706.713379	105.818527
706.661926	75.899796
706.610474	112.679672
706.559021	110.360466
706.507507	108.042076
706.456055	121.813026
706.404602	89.620064
706.353149	75.818878
706.301636	119.450928
706.250183	105.649338
706.198730	94.148972
706.147217	105.611771
706.095764	98.706490
706.044250	98.688934
705.992798	121.618210
705.941345	114.713753
705.889832	89.460815
705.838379	57.336475
705.786804	110.066444
705.735352	71.071930
705.683838	96.273872
705.632385	105.424057
705.580872	59.576904
705.529419	103.095528
705.477844	114.530197
705.426331	114.509819
705.374817	89.301765
705.323364	125.915970
705.271851	107.581764
705.220337	93.831215
705.168823	98.390831
705.117310	98.373314
705.065796	134.953308
705.014282	112.059914
704.962830	121.186081
704.911255	52.580822
704.859741	118.857208
704.808228	132.547897
704.756714	82.256454
704.705200	93.664284
704.653625	95.931686
704.602173	54.808342
704.550598	114.163704
704.499084	125.557709
704.447571	130.100266
704.395996	118.666809
704.344482	100.392487
704.292969	91.249641
704.241455	100.356720
704.189880	111.740974
704.138306	98.040932
704.086792	86.625381
704.035278	95.726776
703.983704	118.497749
703.932129	93.414261
703.880615	82.007660
703.829041	70.605118
703.777527	127.521988
703.725952	100.177986
703.674377	84.225563
703.622803	100.142265
703.571289	97.848854
703.519714	104.656853
703.468140	109.187675
703.416565	88.699165
703.364990	140.983780
703.313416	70.479317
703.261902	113.656044
703.210327	106.817627
703.158752	104.526260
703.107178	63.613327
703.055542	99.945969
703.004028	102.199226
702.952393	108.993057
702.900818	102.162766
702.849243	79.445747
702.797668	104.395775
702.746094	90.762733
702.694519	86.209213
702.642883	108.876404
702.591309	63.499901
702.539734	83.895607
702.488098	115.619247
702.436584	108.798683
702.384949	74.785744
702.333374	95.164864
702.281738	115.536697
702.230164	67.950630
702.178528	81.526192
702.126892	108.682175
702.075317	97.343727
702.023682	101.853149
701.972107	95.045959
701.920471	104.079361
701.868835	117.633919
701.817261	115.351112
701.765625	122.114655
701.714050	135.658707
701.662415	72.338387
701.610779	72.325462
701.559204	94.910202
701.507507	74.558975
701.455933	90.358368
701.404297	106.152107
701.352661	83.551613
701.301025	99.340919
701.249390	81.264404
701.197754	88.020699
701.146118	81.235352
701.094482	97.013771
701.042847	96.996422
700.991211	94.723755
700.939575	126.275757
700.887939	69.890152
700.836243	92.418831
700.784607	108.178307
700.732971	103.652336
700.681335	121.657066
700.629700	105.867767
700.578003	81.075699
700.526367	94.571396
700.474670	78.795395
700.423035	108.042923
700.371399	96.771141
700.319702	96.753822
700.268066	92.237137
700.216370	105.716339
700.164734	58.470913
700.113037	112.423935
700.061401	80.930748
