#Wave		#Intensity
899.963257	140.032349
899.920715	207.789932
899.878235	225.822372
899.835815	189.660355
899.793274	180.599915
899.750793	167.028122
899.708252	216.650360
899.665771	166.974518
899.623230	230.117126
899.580688	212.034698
899.538208	202.979355
899.495667	189.417007
899.453186	207.423431
899.410645	211.898621
899.368103	238.911163
899.325623	198.309525
899.283020	202.784012
899.240540	211.762650
899.197998	144.155685
899.155396	189.173981
899.112854	180.136795
899.070312	247.648346
899.027771	180.078995
898.985229	202.556366
898.942688	238.528107
898.900085	206.991180
898.857544	197.959793
898.814941	220.419846
898.772400	175.408066
898.729797	188.870682
898.687256	188.840378
898.644714	233.764862
898.602112	197.769302
898.559570	206.725647
898.516907	170.745956
898.474304	161.733383
898.431763	197.642426
898.389221	215.575317
898.346558	255.954636
898.304016	228.975296
898.261353	179.559662
898.218750	219.925293
898.176147	210.914917
898.133606	206.394241
898.090942	179.444473
898.048340	188.386459
898.005676	197.325592
897.963074	228.681610
897.920471	228.644928
897.877808	251.020828
897.835205	259.944153
897.792542	201.648453
897.749939	246.419693
897.707275	268.778351
897.664673	223.946045
897.622009	259.735748
897.579346	219.396729
897.536743	183.547409
897.494080	219.326355
897.451477	205.865173
897.408752	241.629059
897.366089	223.694733
897.323425	201.292969
897.280823	232.567902
897.238098	219.115372
897.195435	174.369980
897.152710	183.282623
897.110046	214.540359
897.067383	196.630463
897.024719	232.344193
896.982056	250.176682
896.939331	178.668976
896.896667	285.824524
896.854004	236.660461
896.811279	236.622513
896.768555	205.337555
896.725830	236.546631
896.683167	258.820831
896.640442	276.626190
896.597778	258.737823
896.555054	285.458038
896.512268	263.114410
896.469604	280.907623
896.426880	231.823090
896.384094	276.360138
896.341431	187.181671
896.298706	258.447540
896.255920	289.593048
896.213257	249.455536
896.170532	267.230927
896.127747	236.016129
896.085022	204.811340
896.042236	311.619476
895.999512	235.902618
895.956787	226.964233
895.913940	222.478271
895.871216	262.482269
895.828430	244.647629
895.785767	271.292969
895.742981	284.589600
895.700195	262.313965
895.657410	275.607788
895.614624	284.452728
895.571838	235.524658
895.529114	257.702637
895.486267	302.085693
895.443481	306.478973
895.400757	337.516937
895.357910	261.977722
895.315125	297.452423
895.272339	328.476868
895.229553	230.784576
895.186768	301.746826
895.143921	292.824982
895.101135	328.266266
895.058350	310.472382
895.015442	390.245544
894.972656	305.938934
894.929871	332.489014
894.887024	305.840851
894.844238	301.360077
894.801392	292.449646
894.758545	332.275879
894.715698	292.355896
894.672913	274.593323
894.630066	301.118591
894.587219	274.505310
894.544373	336.436432
894.501526	331.956421
894.458679	300.925568
894.415894	287.603333
894.372986	318.524933
894.330078	296.357635
894.287292	336.112976
894.244446	358.168274
894.201538	313.899628
894.158691	327.110565
894.115845	353.576355
894.072876	313.748718
894.030029	335.789856
893.987183	362.241516
893.944275	388.684692
893.901428	331.212280
893.858521	362.067383
893.815552	370.838837
893.772766	401.677673
893.729858	313.346649
893.686951	388.311066
893.644043	383.836914
893.601135	326.429626
893.558167	374.892883
893.515320	304.276031
893.472412	383.590881
893.429504	405.571350
893.386536	431.952393
893.343689	312.894958
893.300720	326.063599
893.257812	396.500275
893.214844	347.983368
893.171936	369.948334
893.129028	413.923462
893.086060	422.662598
893.043091	391.780640
893.000183	369.711243
892.957275	374.052612
892.914307	356.393005
892.871338	431.122437
892.828430	422.256348
892.785461	444.177673
892.742493	417.723938
892.699524	413.260620
892.656555	470.338287
892.613525	386.758301
892.570618	470.187561
892.527649	461.325073
892.484619	430.501068
892.441711	474.353729
892.398682	505.017944
892.355652	478.592468
892.312744	456.565521
892.269775	487.217804
892.226746	425.698700
892.183777	544.104919
892.140686	465.047455
892.097717	482.519073
892.054749	535.071777
892.011719	473.594208
891.968750	434.058441
891.925720	447.140076
891.882751	460.217499
891.839722	490.820038
891.796692	407.490601
891.753662	433.710815
891.710632	398.599609
891.667603	402.915253
891.624573	486.048126
891.581482	437.811035
891.538513	477.137573
891.495422	442.047485
891.452454	472.608704
891.409363	520.661316
891.366272	516.203308
891.323242	511.746704
891.280273	586.009155
891.237122	546.562744
891.194092	489.641785
891.151062	480.821136
891.107971	572.522522
891.064880	554.951965
891.021851	484.959076
890.978760	615.930420
890.935730	545.950134
890.892639	541.495728
890.849548	489.014587
890.806458	467.108734
890.763367	519.411499
890.720276	536.784729
890.677185	623.966797
890.634155	506.073822
890.591003	553.974792
890.547913	545.163452
890.504761	553.797363
890.461731	540.628906
890.418579	584.134399
890.375488	496.870575
890.332336	505.506592
890.289246	527.211182
890.246155	557.621704
890.203003	535.753784
890.159912	566.153076
890.116760	496.393188
890.073669	583.386230
890.030457	548.469360
889.987366	522.268066
889.944214	609.215149
889.901062	600.415894
889.857910	552.468140
889.814758	665.465271
889.771606	613.173645
889.728516	573.942993
889.685364	499.945984
889.642212	630.265686
889.598999	621.472839
889.555908	656.135437
889.512695	629.962891
889.469543	612.486511
889.426392	542.897522
889.383240	616.632812
889.340027	599.166870
889.296875	586.047607
889.253723	577.272949
889.210449	568.501099
889.167297	520.680908
889.124146	550.965759
889.080933	520.514160
889.037781	602.832336
888.994507	585.390869
888.951294	554.948364
888.908081	576.533691
888.864868	524.431580
888.821716	637.017334
888.778503	563.258423
888.735291	571.832336
888.692078	580.403503
888.648804	580.310547
888.605652	593.207581
888.562378	593.112549
888.519226	584.360352
888.475952	631.873718
888.432739	623.118103
888.389465	635.997864
888.346252	540.727844
888.303040	679.045410
888.259766	549.203552
888.216492	536.144348
888.173279	600.904297
888.130066	600.808044
888.086731	579.103516
888.043457	566.047852
888.000244	604.839722
887.956970	570.186157
887.913696	660.791748
887.870483	548.412476
887.827209	526.737061
887.783936	552.553650
887.740601	569.729736
887.697327	543.745850
887.654053	578.176758
887.610779	569.456055
887.567505	586.618347
887.524231	638.276550
887.480957	564.870544
887.437622	525.978394
887.394348	637.969971
887.351074	612.008301
887.307739	555.890320
887.264404	633.354980
887.221130	641.869263
887.177734	658.995117
887.134460	658.889587
887.091125	641.560974
887.047852	697.424377
887.004517	714.530273
886.961182	671.378784
886.917908	636.847107
886.874573	722.791748
886.831238	597.928345
886.787842	713.958374
886.744568	657.940613
886.701172	644.936523
886.657837	674.925476
886.614502	692.010193
886.571167	704.791931
886.527832	674.601257
886.484436	605.755127
886.441101	635.726257
886.397766	708.635376
886.354370	691.345581
886.310974	686.941528
886.267639	712.587708
886.224304	652.385437
886.180908	678.028931
886.137451	750.861145
886.094177	626.332458
886.050781	759.199280
886.007385	699.037659
885.963989	746.092468
885.920593	741.685852
885.877197	775.859192
885.833862	805.735779
885.790405	784.181030
885.747009	775.486572
885.703613	749.659790
885.660217	865.183044
885.616821	839.350098
885.573364	826.370605
885.529968	856.205444
885.486511	838.947021
885.443115	855.931274
885.399719	924.257812
885.356323	902.718384
885.312805	868.353027
885.269409	863.937073
885.225952	949.323364
885.182556	838.007202
885.139099	957.569153
885.095642	824.916321
885.052185	841.878235
885.008728	982.746155
884.965332	982.588806
884.921875	978.160034
884.878418	871.234497
884.835022	879.635132
884.791504	823.992249
884.748108	858.009949
884.704590	973.109253
884.661072	926.012695
884.617615	849.064636
884.574219	874.524536
884.530762	844.527466
884.487244	989.388916
884.443726	967.910889
884.400269	997.598633
884.356812	1018.751709
884.313232	988.755493
884.269836	1014.164307
884.226257	933.052246
884.182739	1026.619141
884.139343	983.863281
884.095825	958.154968
884.052307	958.001587
884.008789	1047.247314
883.965332	970.464111
883.921753	995.843201
883.878235	999.938782
883.834717	1046.576904
883.791199	906.037354
883.747681	914.398315
883.704163	1058.831299
883.660645	965.125427
883.617126	994.727722
883.573547	939.314636
883.530029	973.161194
883.486511	1049.486206
883.442932	926.118835
883.399414	921.723022
883.355896	947.056824
883.312317	963.890015
883.268738	1082.610596
883.225220	976.315979
883.181641	1052.554810
883.138062	1082.090698
883.094482	1077.674683
883.050964	1119.923584
883.007385	1208.814819
882.963745	1132.287354
882.920227	1106.665405
882.876648	1157.361328
882.833069	1131.743652
882.789429	1156.990845
882.745911	1165.280396
882.702332	1249.827881
882.658691	1224.211670
882.615112	1147.779419
882.571533	1164.534302
882.527954	1151.645996
882.484314	1138.761597
882.440735	1155.509888
882.397156	1197.644531
882.353516	1074.745605
882.309875	1167.646851
882.266296	1006.722717
882.222656	1070.000244
882.179016	1023.314697
882.135437	1031.606689
882.091797	1061.032104
882.048218	925.612854
882.004517	971.949219
881.960876	1128.125610
881.917236	1094.148926
881.873657	1085.526123
881.829956	1013.558594
881.786316	996.506409
881.742737	1068.117676
881.699036	1118.600220
881.655396	1055.114380
881.611694	1071.824585
881.568054	1016.804565
881.524414	1058.826172
881.480774	1003.825806
881.437073	1066.921265
881.393372	1125.780151
881.349731	1087.658447
881.306091	1100.129517
881.262390	1062.023926
881.218689	1007.075745
881.174988	1053.257935
881.131348	1048.876953
881.087646	972.898743
881.044006	989.587036
881.000244	934.694275
880.956604	909.286682
880.912903	854.424316
880.869141	980.536926
880.825500	921.473022
880.781799	879.255859
880.738098	895.940247
880.694397	916.824951
880.650574	933.497986
880.606934	891.305786
880.563232	950.013550
880.519470	975.079041
880.475769	974.922913
880.432007	894.936829
880.388306	928.400818
880.344604	919.851746
880.300842	940.702332
880.257080	932.153931
880.213379	848.040344
880.169617	965.435913
880.125854	906.525146
880.082092	935.753418
880.038391	918.821533
879.994629	897.700134
879.950867	830.449402
879.907104	817.735962
879.863342	905.654785
879.819580	880.356812
879.775818	876.024353
879.732056	871.693298
879.688293	750.039062
879.644531	825.329834
879.600708	808.442444
879.556946	825.065613
879.513123	791.433716
879.469299	778.746582
879.425598	715.829834
879.381775	786.868225
879.338013	682.122314
879.294189	782.432251
879.250427	778.123535
879.206604	757.085022
879.162781	715.142639
879.119019	777.749939
879.075134	727.456055
879.031372	739.879944
878.987549	677.069824
878.943726	727.106750
878.899963	806.374390
878.856140	739.406311
878.812317	726.757629
878.768433	755.874023
878.724609	701.472412
878.680786	705.534851
878.636963	793.077942
878.593079	726.176147
878.549255	726.059937
878.505432	646.673950
878.461609	717.484619
878.417725	709.028259
878.373840	633.853210
878.330017	667.107117
878.286194	587.794067
878.242310	583.531860
878.198425	662.619385
878.154602	641.679565
878.110718	599.916016
878.066895	616.481628
878.022949	570.570740
877.979065	603.792053
877.935181	557.897827
877.891296	611.924255
877.847473	545.232971
877.803589	499.370117
877.759705	582.505188
877.715759	553.291382
877.671936	532.405701
877.627991	578.066772
877.584106	565.499939
877.540222	536.307495
877.496277	519.594604
877.452393	540.291870
877.408447	552.671692
877.364563	486.107025
877.320679	552.494751
877.276672	506.718567
877.232788	527.401306
877.188904	435.970642
877.144958	531.383911
877.101013	460.735718
877.057068	485.562592
877.013184	431.542114
876.969238	472.960815
876.925354	443.848297
876.881348	389.860382
876.837402	402.238342
876.793457	381.443329
876.749512	385.527740
876.705566	377.176422
876.661560	422.701508
876.617676	439.207733
876.573730	393.566559
876.529724	372.792847
876.485779	422.430908
876.441833	376.814331
876.397888	442.996460
876.353821	401.530640
876.309875	471.826447
876.265869	405.540253
876.221924	405.475342
876.177917	405.410431
876.133972	438.434967
876.089966	376.332031
876.046021	396.946045
876.002014	405.150909
875.958008	376.151337
875.913940	392.622589
875.869995	413.220795
875.825989	375.970703
875.781982	388.303192
875.737976	346.938782
875.693970	392.308441
875.649902	367.472229
875.605896	379.798126
875.561890	396.247650
875.517883	408.564972
875.473877	391.994537
875.429810	371.303802
875.385864	420.743591
875.341736	391.806305
875.297791	391.743591
875.253723	424.664520
875.209656	387.495880
875.165588	449.258392
875.121521	486.275269
875.077454	453.234894
875.033447	486.119598
874.989380	461.327789
874.945374	485.963959
874.901306	444.709351
874.857239	456.989227
874.813110	465.148804
874.769104	460.958618
874.725037	448.539703
874.680969	460.811066
874.636841	481.305908
874.592773	522.359558
874.548706	472.927002
874.504639	481.074799
874.460571	550.886353
874.416443	554.908569
874.372437	456.185150
874.328308	509.530640
874.284180	480.689850
874.240051	492.936310
874.196045	427.143066
874.151917	492.778473
874.107788	492.699585
874.063660	533.672424
874.019531	504.855408
873.975464	537.605469
873.931335	500.590576
873.887207	504.612976
873.843079	479.920868
873.798950	574.172363
873.754822	537.175232
873.710754	553.488892
873.666565	553.400330
873.622437	504.128448
873.578308	512.243652
873.534180	540.842651
873.489990	569.432556
873.445862	483.325775
873.401672	524.201660
873.357605	536.401733
873.313416	503.563751
873.269287	593.537048
873.225098	605.720093
873.180969	519.690125
873.136780	560.520874
873.092590	519.523743
873.048462	597.152161
873.004272	556.162231
872.960083	568.339539
872.915894	523.279236
872.871765	564.070068
872.827576	572.153381
872.783386	584.320251
872.739197	571.970215
872.695007	637.236206
872.650818	592.208008
872.606567	592.113220
872.562439	547.106689
872.518188	583.759155
872.474060	595.910461
872.429810	624.381531
872.385559	571.238037
872.341370	636.420471
872.297241	632.239563
872.252930	652.529907
872.208740	644.270142
872.164551	656.398010
872.120361	599.223938
872.076050	652.112122
872.031860	652.007690
871.987610	774.135193
871.943359	647.725159
871.899109	623.182922
871.854919	635.300476
871.810608	684.060181
871.766418	635.097046
871.722168	626.854370
871.677917	614.544495
871.633667	667.345459
871.589417	634.690369
871.545166	589.842102
871.500916	658.890503
871.456665	634.385559
871.412354	601.756592
871.368103	577.268616
871.323853	597.499268
871.279602	654.299194
871.235229	589.181335
871.190979	617.525635
871.146790	564.620544
871.102417	552.346008
871.058105	584.743347
871.013916	645.550720
870.969604	657.625610
870.925293	641.285217
870.880981	620.891968
870.836731	588.332764
870.792419	604.465820
870.748047	543.526550
870.703796	515.050842
870.659485	555.517090
870.615173	563.536560
870.570862	514.803467
870.526550	502.562286
870.482178	518.690918
870.437866	490.246460
870.393555	441.556274
870.349243	457.686859
870.304932	469.762604
870.260559	498.030579
870.216248	416.983215
870.171875	445.250580
870.127563	416.849670
870.083252	400.597198
870.038879	392.441467
869.994507	404.514038
869.950195	420.627228
869.905823	339.682983
869.861511	392.190155
869.817078	343.616730
869.772766	343.561707
869.728394	404.125519
869.684021	395.979584
869.639648	355.516571
869.595276	323.145111
869.550903	363.480042
869.506531	323.041626
869.462158	347.214142
869.417786	258.350525
869.373413	262.345245
869.328979	330.905609
869.284607	290.504730
869.240234	258.185089
869.195862	242.009750
869.151428	274.233795
869.107056	294.350891
869.062622	209.641022
869.018250	217.669281
868.973877	189.422546
868.929443	241.777283
868.885010	201.448807
868.840637	265.869843
868.796143	213.467346
868.751770	193.297943
868.707336	185.214203
868.662903	165.055786
868.618469	197.230194
868.574036	197.198608
868.529663	209.238480
868.485229	181.042755
868.440735	225.261566
868.396301	185.006653
868.351868	176.934540
868.307434	176.906204
868.263000	184.917770
868.218506	144.695084
868.174072	180.839874
868.129578	168.756851
868.085144	152.660309
868.040710	188.786469
867.996277	116.466606
867.951721	156.602417
867.907288	132.488510
867.862793	132.467300
867.818359	172.581253
867.773865	124.399117
867.729370	160.489273
867.684937	160.463562
867.640442	132.361237
867.595947	108.278214
867.551514	112.270531
867.506958	108.243530
867.462463	112.234566
867.417969	132.255264
867.373535	124.219894
867.328979	104.167740
867.284485	116.168480
867.239929	144.186050
867.195435	108.122215
867.150940	80.077705
867.106445	108.087578
867.061890	140.091080
867.017395	120.058838
866.972839	124.040924
866.928345	108.018341
866.883789	132.001266
866.839294	119.981926
866.794739	95.970169
866.750183	147.930313
866.705688	107.931847
866.661133	115.908234
866.616638	103.901077
866.572021	107.879990
866.527527	103.867790
866.482910	95.862602
866.438416	139.777237
866.393860	99.824883
866.349304	135.740097
866.304749	107.776337
866.260193	111.750145
866.215637	111.732246
866.171021	83.785759
866.126465	87.761490
866.081909	123.644112
866.037292	79.757614
865.992676	107.655525
865.948181	91.691872
865.903564	131.536819
865.859009	99.633141
865.814392	99.617180
865.769836	103.585266
865.725159	119.502319
865.680603	143.379807
865.635986	99.553352
865.591431	127.407883
865.546753	99.521461
865.502197	135.327499
865.457581	95.509987
865.412964	87.536797
865.368347	119.349228
865.323792	95.464088
865.279114	79.540657
865.234497	115.315475
865.189880	163.006104
865.145264	123.228767
865.100647	139.106964
865.055969	115.241592
865.011353	147.008820
864.966675	131.094955
864.922058	162.849457
864.877441	111.196442
864.832825	99.266632
864.788147	123.070900
864.743469	103.204216
864.698853	115.093948
864.654175	126.979866
864.609497	111.089584
864.564880	122.972328
864.520203	115.020195
864.475586	162.588699
864.430908	107.053452
864.386169	126.857834
864.341492	174.401566
864.296875	150.595398
864.252136	87.172844
864.207520	150.547134
864.162781	170.328674
864.118103	170.301376
864.073425	146.514908
864.028687	146.491440
863.984009	138.550766
863.939331	150.402451
863.894653	197.866241
863.849976	146.397552
863.805237	126.593811
863.760559	166.127747
863.715820	177.965485
863.671143	154.212036
863.626404	170.001419
863.581665	181.832825
863.536987	173.899185
863.492249	122.500244
863.447571	189.647400
863.402832	130.361694
863.358093	154.039124
863.313354	134.268997
863.268616	146.092834
863.223877	189.495468
863.179138	193.412292
863.134338	138.129501
863.089600	138.107361
863.044861	185.428726
863.000183	118.339790
862.955444	177.481232
862.910645	169.565994
862.865906	169.538818
862.821106	173.453781
862.776367	137.952484
862.731628	106.403427
862.686890	157.609436
862.642090	98.490112
862.597290	165.436859
862.552490	82.705177
862.507751	137.819870
862.463013	90.552818
862.418213	137.775681
862.373352	106.267059
862.328613	94.444473
862.283813	86.560219
862.239014	129.819519
862.194275	106.198944
862.149475	145.508560
862.104675	141.553192
862.059814	106.147881
862.015076	133.646271
861.970215	82.532997
861.925415	70.731224
861.880615	66.791008
861.835754	82.493309
861.790955	98.190582
861.746155	66.758888
861.701294	78.527283
861.656494	90.291893
861.611694	94.202522
861.566833	90.262947
861.522034	94.172325
861.477173	98.080444
861.432373	101.987305
861.387512	98.048996
861.342651	70.583961
861.297852	50.969131
861.252991	78.401482
861.208130	66.630569
861.163269	27.431719
861.118408	78.363777
861.073608	66.598526
861.028687	74.421715
860.983826	39.163044
860.938965	105.723267
860.894165	43.065536
860.849243	97.860527
860.804382	74.362076
860.759460	78.263321
860.714600	89.988388
860.669739	23.471466
860.624817	74.314392
860.580017	58.659851
860.535095	82.110626
860.490173	82.097458
860.445251	85.993073
860.400391	70.346687
860.355469	58.612839
860.310608	70.324127
860.265686	46.875233
860.220764	58.584644
860.175903	42.955185
860.130920	78.087814
860.086060	58.556469
860.041138	62.450214
859.996216	62.440201
859.951294	54.626415
859.906372	27.308828
859.861450	27.304449
859.816467	54.600140
859.771606	38.993847
859.726685	42.886353
859.681702	46.777607
859.636780	46.770107
859.591858	46.762604
859.546936	66.236397
859.501953	93.495216
859.457031	81.795197
859.412109	66.204536
859.367065	101.237762
859.322144	58.397034
859.277161	46.710133
859.232239	73.945847
859.187256	54.477676
859.142273	42.797024
859.097290	70.020264
859.052429	42.783298
859.007385	77.775337
858.962402	23.328859
858.917419	42.762714
858.872498	42.755856
858.827454	69.952904
858.782532	50.513439
858.737488	38.850258
858.692505	31.075222
858.647522	69.908035
858.602478	46.597881
858.557495	66.003075
858.512512	65.992493
858.467529	42.694172
858.422485	46.567989
858.377502	42.680477
858.332458	50.432472
858.287537	42.666786
858.242493	62.050823
858.197449	65.918427
858.152405	58.153984
858.107422	50.392036
858.062378	42.632576
858.017334	31.000534
857.972290	54.242233
857.927307	42.612061
857.882263	65.844437
857.837219	50.343552
857.792236	54.207436
857.747131	65.812752
857.702087	54.190044
857.657043	58.051445
857.611938	73.520035
857.566956	58.032822
857.521912	69.628212
857.476807	54.146587
857.431763	73.472862
857.386719	50.262840
857.341614	30.926018
857.296570	61.842110
857.251465	46.374142
857.206421	50.230591
857.161316	54.085804
857.116272	50.214474
857.071167	54.068451
857.026123	42.475536
856.981018	46.329514
856.935974	30.881388
856.890869	57.893311
856.845764	73.319756
856.800659	61.733047
856.755554	42.434662
856.710510	30.856619
856.665344	26.995209
856.620239	61.693436
856.575134	50.117870
856.530029	30.836819
856.484924	42.393822
856.439758	53.947113
856.394653	65.496696
856.349548	53.929802
856.304443	34.663593
856.259338	42.359818
856.214233	53.903839
856.169006	53.895191
856.123962	46.188465
856.078796	50.029472
856.033630	50.021442
855.988525	50.013416
855.943420	38.465683
855.898254	46.151413
855.853027	19.226669
855.807922	46.136600
855.762756	23.064598
855.717590	65.339203
855.672485	42.271523
855.627258	61.475983
855.582153	26.891426
855.536987	53.774220
855.491821	61.446384
855.446655	57.596741
855.401489	49.909164
855.356262	7.677100
855.311096	15.351736
855.265930	42.210499
855.220764	57.550529
855.175537	42.196949
855.130371	23.012823
855.085205	11.504564
855.039978	46.010872
854.994812	46.003483
854.949646	45.996101
854.904358	65.150681
854.859192	57.476665
854.814026	42.142788
854.768799	30.644381
854.723511	45.959194
854.678406	42.122498
854.633179	57.430546
854.587952	38.280884
854.542725	42.102215
854.497498	61.229752
854.452209	42.088696
854.407043	19.128155
854.361755	38.250168
854.316589	15.297610
854.271301	38.237885
854.226074	34.408569
854.180908	26.757925
854.135681	38.219471
854.090332	26.749334
854.045105	19.103600
853.999878	45.841278
853.954651	61.111889
853.909363	26.732159
853.864136	22.909599
853.818848	41.994186
853.773621	34.353363
853.728333	38.164276
853.683044	34.342331
853.637817	64.858437
853.592529	30.516716
853.547241	41.953747
853.501953	38.133644
853.456726	34.314770
853.411438	34.309258
853.366089	45.738331
853.320801	26.676409
853.275513	41.913338
853.230225	38.096916
853.184937	45.708958
853.139648	26.659277
853.094421	64.733559
853.049072	19.036224
853.003784	41.872971
852.958435	45.672268
852.913147	22.832466
852.867859	49.462399
852.822571	38.041885
852.777222	45.642933
852.731873	45.635601
852.686584	41.825916
852.641296	19.008726
852.595886	38.011349
852.550598	68.409431
852.505249	26.599396
852.459900	41.792339
852.414551	34.188240
852.369263	34.182747
852.323914	49.367149
852.278564	41.765491
852.233215	41.758785
852.187927	37.956432
852.142517	18.975168
852.097168	18.972120
852.051819	45.525772
852.006470	49.311665
851.961121	41.718552
851.915771	15.167946
851.870361	56.870659
851.825012	49.279987
851.779602	37.901592
851.734253	49.264153
851.688843	26.522591
851.643555	64.401657
851.598145	30.301794
851.552734	45.445389
851.507324	26.505550
851.461975	75.717979
851.416565	30.282326
851.371216	15.138730
851.325806	34.056671
851.280396	15.133865
851.235046	34.045727
851.189636	7.564501
851.144165	37.816429
851.098755	60.496567
851.053345	37.804279
851.007935	60.477127
850.962524	22.675278
850.917175	49.121876
850.871765	52.891979
850.826294	49.106091
850.780945	41.544632
850.735474	41.537952
850.690002	33.980137
850.644592	30.199713
850.599182	37.743576
850.553711	56.606266
850.508301	49.050880
850.462891	22.635229
850.417419	64.122841
850.372009	52.798561
850.326538	45.248634
850.281067	33.931023
850.235657	67.851143
850.190186	41.457920
850.144714	33.914665
850.099182	26.373835
850.053772	22.602510
850.008301	22.598877
849.962830	37.658741
849.917358	37.652691
849.871887	48.940628
849.826355	41.404644
849.780945	30.107630
849.735474	41.391335
849.690002	30.097952
849.644470	33.854752
849.598999	48.893448
849.553528	-3.760430
849.507996	41.358082
849.462524	33.832989
849.417053	48.862019
849.371521	56.370190
849.325989	56.361126
849.280518	48.838459
849.234985	48.830608
849.189514	41.311565
849.143982	52.569901
849.098450	22.526337
849.052979	48.799213
849.007446	18.765911
848.961914	45.030945
848.916443	48.775681
848.870911	11.254117
848.825378	45.009232
848.779846	30.001329
848.734253	59.993011
848.688721	37.489605
848.643250	11.245072
848.597656	41.225304
848.552124	44.965828
848.506592	71.184448
848.461060	52.443264
848.415466	56.180176
848.369934	33.702686
848.324341	48.673828
848.278809	22.461231
848.233276	14.971746
848.187683	41.165684
848.142151	26.192131
848.096558	37.411312
848.050964	29.924238
848.005371	26.179497
847.959839	41.132595
847.914246	26.171078
847.868652	59.809986
847.823120	26.162661
847.777466	22.421532
847.731934	37.363209
847.686340	52.300079
847.640747	52.291668
847.595093	18.672592
847.549500	44.807014
847.503906	22.399904
847.458313	37.327168
847.412720	33.589050
847.367188	14.926064
847.321533	18.654581
847.275879	29.842527
847.230286	59.675453
847.184692	37.291161
847.139038	52.199226
847.093445	41.007080
847.047791	29.818535
847.002197	26.087021
846.956543	29.808941
846.910950	44.706219
846.865356	44.699028
846.819641	59.589115
846.773987	48.408367
846.728333	22.338730
846.682739	37.225227
846.637085	29.775391
846.591431	26.049274
846.545776	40.927990
846.500183	26.040894
846.454468	48.353878
846.408813	44.627171
846.363159	26.028328
846.317505	44.612812
846.271851	22.302816
846.226135	29.732304
846.180481	40.875340
846.134827	14.861368
846.089172	40.862186
846.043457	40.855614
845.997803	37.135490
845.952148	51.981319
845.906433	63.110016
845.860718	40.829323
845.815002	37.111591
845.769348	37.105621
845.723633	59.359440
845.677979	25.965576
845.632324	37.087711
845.586548	7.416348
845.540894	37.075775
845.495178	55.604713
845.449463	37.063843
845.403748	51.881027
845.358032	18.525957
845.312317	25.932165
845.266602	33.335991
845.220886	18.517014
845.175110	29.622452
845.129456	59.235371
845.083679	29.612919
845.037964	59.216305
844.992249	18.502117
844.946533	40.698105
844.900818	36.992321
844.854980	51.780914
844.809265	36.980412
844.763550	59.159138
844.717773	40.665359
844.672058	55.443836
844.626282	40.652267
844.580505	59.121056
844.534729	29.555769
844.489014	36.938763
844.443237	29.546253
844.397522	36.926872
844.351746	51.689297
844.305969	29.531986
844.260193	44.290848
844.214417	33.212788
844.168640	22.138294
844.122803	7.378243
844.077087	44.262329
844.031250	33.191402
843.985474	11.062019
843.939697	22.120478
843.893982	22.116915
843.848145	33.170033
843.802368	51.589520
843.756531	33.159351
843.710754	36.837791
843.664917	25.782301
843.619141	47.873707
843.573303	44.183998
843.527527	51.539696
843.481689	58.893024
843.435913	40.482433
843.390137	62.553688
843.344299	36.790359
843.298462	51.498211
843.252625	44.134212
843.206787	44.127106
843.160950	33.090000
843.115112	51.465042
843.069336	55.132236
843.023438	36.748905
842.977661	29.394390
842.931763	55.105602
842.885986	36.731152
842.840088	33.052711
842.794250	25.703524
842.748413	33.042065
842.702576	58.731987
842.656677	47.712055
842.610840	25.686968
842.565002	22.013855
842.519104	44.020615
842.473206	33.010143
842.427429	36.672028
842.381531	47.665958
842.335632	69.654411
842.289795	36.654308
842.243835	51.307766
842.197998	40.306751
842.152161	21.981958
842.106262	58.609112
842.060303	54.937191
842.014465	58.590229
841.968567	25.629095
841.922668	40.267803
841.876770	32.941074
841.830933	47.573887
841.784973	73.178802
841.739075	51.216908
841.693237	65.839699
841.647278	36.571720
841.601318	43.878990
841.555420	18.279966
841.509521	51.175659
841.463562	10.964445
841.417664	54.813393
841.371765	69.419113
841.325867	36.530487
841.279907	47.481979
841.234009	32.866840
841.188049	47.466675
841.142090	40.157639
841.096130	51.101486
841.050232	32.845661
841.004272	18.244648
840.958374	47.428440
840.912415	32.829781
840.866455	21.882994
840.820496	40.112354
840.774536	43.751881
840.728638	40.099426
840.682678	21.868889
840.636719	51.019180
840.590759	40.080040
840.544800	25.501368
840.498779	18.212326
840.452820	50.986294
840.406799	40.054203
840.360901	58.251266
840.314880	54.601757
840.268921	7.279061
840.222900	32.750492
840.176941	54.575356
840.130981	43.653248
840.084961	43.646210
840.039001	47.275768
839.992981	25.452080
839.947021	50.895954
839.901001	50.887745
839.854980	50.879543
839.808960	43.604004
839.763000	10.899243
839.716980	0.000000
839.670959	18.159548
839.625000	47.207214
839.578918	47.199600
839.532959	25.411072
839.486877	47.184380
839.440857	50.805756
839.394836	21.770384
839.348816	29.022497
839.302795	29.017817
839.256775	54.399632
839.210754	47.138744
839.164673	47.131145
839.118652	39.873768
839.072571	36.243034
839.026611	28.989750
838.980530	47.100746
838.934509	28.980400
838.888428	39.841625
838.842407	43.456581
838.796265	54.311962
838.750244	61.543629
838.704224	10.858889
838.658142	10.857138
838.612061	21.710772
838.566040	28.943027
838.519958	39.790241
838.473877	36.167114
838.427734	21.696768
838.381714	21.693268
838.335632	36.149612
838.289551	50.601295
838.243469	21.682770
838.197388	28.905697
838.151245	36.126293
838.105225	50.568649
838.059143	54.171955
838.013000	39.719692
837.966919	18.051493
837.920837	36.097160
837.874695	28.873068
837.828613	75.779572
837.782471	43.295628
837.736450	43.288643
837.690308	36.068047
837.644165	57.699566
837.598083	54.084614
837.551880	43.260708
837.505798	50.462681
837.459717	28.831165
837.413513	25.223198
837.367432	39.630058
837.321289	43.225815
837.275146	25.210989
837.229004	36.009888
837.182861	39.604485
837.136780	46.797745
837.090637	68.385666
837.044434	32.387981
836.998352	32.382755
836.952148	57.560051
836.906006	25.178457
836.859863	32.367077
836.813721	39.553375
836.767578	28.761448
836.721375	43.135208
836.675171	50.316288
836.629028	32.340965
836.582825	39.521465
836.536743	43.107365
836.490540	39.508705
836.444336	53.866810
836.398132	25.133787
836.351990	64.619308
836.305786	43.072582
836.259644	50.243233
836.213440	60.999790
836.167236	25.113506
836.121094	43.044773
836.074890	53.797279
836.028625	25.101343
835.982422	17.926636
835.936218	32.262737
835.890076	14.336679
835.843872	17.917955
835.797668	32.247112
835.751404	42.989204
835.705261	46.564117
835.658997	42.975323
835.612793	14.322795
835.566528	50.121685
835.520325	28.636337
835.474121	39.368607
835.427856	35.783863
835.381653	25.044659
835.335388	39.349537
835.289185	21.459917
835.242920	25.032526
835.196716	14.301991
835.150513	28.599361
835.104248	17.871714
835.057922	25.016359
835.011719	32.158695
834.965454	60.734390
834.919250	39.292374
834.872986	64.286232
834.826660	74.988487
834.780457	57.124855
834.734192	35.697266
834.687927	39.260651
834.641663	39.254311
834.595398	46.383961
834.549072	35.674206
834.502869	21.401066
834.456543	46.361485
834.410278	42.788303
834.364014	60.606972
834.317688	49.903561
834.271423	49.895496
834.225159	39.197269
834.178833	10.688437
834.132568	56.995789
834.086243	49.863258
834.039978	28.488688
833.993652	46.286636
833.947388	35.599350
833.901062	46.271679
833.854736	35.587849
833.808472	42.698517
833.762146	21.345808
833.715820	28.456478
833.669495	46.234306
833.623169	64.006386
833.576843	24.887348
833.530518	7.109522
833.484192	28.433493
833.437866	35.536121
833.391541	35.530376
833.345215	56.839417
833.298889	46.174561
833.252563	35.513153
833.206177	46.159637
833.159851	42.602009
833.113525	42.595123
833.067200	49.686275
833.020813	42.581352
832.974487	60.313831
832.928101	39.020290
832.881775	39.013981
832.835388	67.376892
832.789062	35.455791
832.742676	56.720093
832.696289	67.344223
832.649963	70.877197
832.603577	53.149303
832.557190	35.427139
832.510803	46.047836
832.464417	56.665096
832.418091	56.655933
832.371643	17.702116
832.325317	28.318808
832.278870	46.010620
832.232483	31.848356
832.186096	45.995743
832.139709	28.300495
832.093323	45.980869
832.046936	28.291344
832.000549	42.430153
831.954102	38.888020
831.907776	56.555241
831.861328	31.807178
831.814880	28.268476
831.768494	56.527809
831.722046	24.726917
831.675659	56.509525
831.629272	24.718920
831.582825	28.245625
831.536438	56.482113
831.489929	63.532097
831.443542	49.405861
831.397156	35.284195
831.350708	28.222788
831.304260	42.327335
831.257812	31.740366
831.211365	49.365917
831.164917	24.678965
831.118530	42.299953
831.072021	56.390816
831.025574	66.953262
830.979065	52.849285
830.932678	31.704441
830.886169	63.398624
830.839722	38.737335
830.793274	42.252075
830.746826	24.643055
830.700378	45.758270
830.653931	66.866653
830.607422	38.706009
830.560974	66.845016
830.514465	31.658304
830.468018	77.374443
830.421509	49.230316
830.375061	31.642939
830.328552	49.214386
830.282043	38.662189
830.235535	49.198460
830.189087	24.595247
830.142578	35.130383
830.096130	35.124699
830.049622	56.190422
830.003113	42.135994
829.956543	63.193764
829.910095	31.591768
829.863525	49.134796
829.817078	35.090603
829.770569	35.084923
829.723999	52.618866
829.677490	31.566210
829.630981	59.615410
829.584473	59.605759
829.537964	70.113075
829.491455	49.071205
829.444885	45.558743
829.398376	70.079025
829.351868	35.033840
829.305298	70.056343
829.258789	70.044998
829.212219	38.518513
829.165710	52.516739
829.119141	31.504942
829.072571	27.999859
829.026001	48.991821
828.979492	55.981586
828.932922	45.477673
828.886353	41.972595
828.839783	52.457249
828.793274	76.924835
828.746704	34.960175
828.700134	45.440868
828.653564	59.413048
828.606995	48.920471
828.560425	48.912548
828.513794	31.438688
828.467285	55.881950
828.420715	59.364956
828.374146	48.880871
828.327515	69.818504
828.280945	41.884319
828.234375	27.918356
828.187744	24.424604
828.141113	62.795956
828.094604	62.785782
828.047974	48.825478
828.001404	55.791508
827.954773	34.864044
827.908142	83.660149
827.861572	66.220222
827.814941	45.301235
827.768311	55.746334
827.721680	38.319397
827.675110	34.830170
827.628479	20.894716
827.581909	38.300774
827.535278	38.294571
827.488586	62.653687
827.441956	52.202950
827.395386	41.755592
827.348694	55.665100
827.302063	31.306547
827.255493	31.301474
827.208862	38.251156
827.162170	27.814516
827.115540	38.238762
827.068848	24.329815
827.022217	48.651745
826.975647	10.423684
826.928955	45.161980
826.882263	45.154659
826.835571	34.728725
826.789001	24.306168
826.742249	52.076202
826.695618	34.711842
826.648987	20.823729
826.602295	17.350296
826.555603	45.103455
826.508972	69.378685
826.462280	27.746975
826.415588	6.935619
826.368896	31.205229
826.322266	55.466969
826.275574	31.195112
826.228882	34.655617
826.182190	38.114998
826.135498	24.251068
826.088806	34.638767
826.042053	31.169836
825.995361	45.015797
825.948669	55.395073
825.901978	6.923262
825.855286	27.688557
825.808594	48.447117
825.761841	58.819103
825.715149	24.215704
825.668396	38.047081
825.621765	34.582645
825.575012	69.154076
825.528320	62.228577
825.481567	20.739494
825.434814	27.648176
825.388123	24.188231
825.341370	20.729406
825.294617	44.906429
825.247864	62.168049
825.201172	31.078983
825.154419	51.789906
825.107727	44.877304
825.060974	27.612324
825.014160	41.411770
824.967468	37.954632
824.920654	31.048752
824.873962	41.391621
824.827148	55.179874
824.780396	44.826374
824.733643	34.476234
824.686890	65.494217
824.640137	37.911552
824.593384	62.027023
824.546631	37.899254
824.499817	51.672417
824.453003	61.996841
824.406311	55.099361
824.359497	58.533573
824.312744	37.868519
824.265930	41.304409
824.219177	48.180660
824.172302	34.409172
824.125549	55.045746
824.078735	68.796013
824.031982	34.392426
823.985168	34.386845
823.938354	61.886276
823.891541	51.563530
823.844788	51.555161
823.797974	58.419701
823.751221	51.538429
823.704346	48.094727
823.657532	61.826042
823.610718	41.210670
823.563904	34.336651
823.517090	58.362835
823.470276	34.325508
823.423462	37.751930
823.376648	44.608673
823.329773	17.154398
823.282959	61.745808
823.236084	44.586956
823.189331	51.438133
823.142456	37.715176
823.095642	47.993340
823.048767	44.558010
823.001953	68.539658
822.955017	54.822823
822.908203	44.536312
822.861328	54.805019
822.814514	37.672333
822.767639	34.242016
822.720764	54.778332
822.673950	61.615616
822.627075	58.183079
822.580200	37.641762
822.533386	71.849876
822.486450	61.575603
822.439636	30.782803
822.392700	54.716095
822.345825	20.515203
822.298950	47.861034
822.252075	64.943710
822.205200	71.768234
822.158325	41.003761
822.111450	40.997101
822.064514	54.653923
822.017639	71.721619
821.970764	68.295212
821.923828	30.727854
821.876953	40.963818
821.830078	40.957161
821.783142	54.600681
821.736267	17.059940
821.689331	47.760075
821.642456	57.984955
821.595520	34.103256
821.548584	44.327030
821.501648	27.273741
821.454712	17.043318
821.407837	47.713539
821.360901	64.743568
821.314026	40.884029
821.267029	54.503185
821.220154	57.900223
821.173157	61.296158
821.126221	30.643099
821.079285	30.638119
821.032349	47.651554
820.985413	68.062584
820.938477	40.830914
820.891541	61.236420
820.844604	17.007351
820.797668	40.811012
820.750671	57.806202
820.703735	37.397934
820.656738	27.194077
820.609802	50.980606
820.562866	47.574165
820.515930	44.168831
820.468933	57.749855
820.421997	67.929962
820.375000	54.335136
820.328003	37.349335
820.281006	30.553577
820.234009	37.337193
820.187073	20.362431
820.140076	23.752306
820.093140	30.533714
820.046082	30.528751
819.999146	44.089916
819.952148	37.300785
819.905090	54.246868
819.858093	54.238049
819.811096	47.450573
819.764099	27.110205
819.717163	40.658695
819.670105	33.876736
819.623108	13.548491
819.576111	64.344872
819.529114	30.474192
819.482117	40.625648
819.435059	33.849201
819.388062	6.768739
819.341064	50.757290
819.294006	30.449421
819.247009	64.271652
819.199951	43.968189
819.152954	30.434566
819.105896	57.478165
819.058838	47.327259
819.011841	40.559624
818.964783	60.829540
818.917725	47.304169
818.870667	57.431431
818.823669	33.777699
818.776611	40.526646
818.729553	47.273396
818.682434	37.137337
818.635376	47.258015
818.588379	60.750420
818.541321	37.119217
818.494263	37.113174
818.447144	33.733761
818.400146	57.338062
818.353027	64.073288
818.306030	47.204216
818.258911	43.825356
818.211853	64.042023
818.164795	40.441010
818.117676	26.956285
818.070618	26.951899
818.023499	47.158146
817.976440	33.678909
817.929321	47.142799
817.882202	33.667946
817.835144	43.761208
817.788025	37.022690
817.740967	40.381813
817.693848	53.833652
817.646729	77.373283
817.599670	47.089115
817.552551	33.629608
817.505432	67.248268
817.458374	36.980526
817.411255	57.142418
817.364075	50.411572
817.316956	60.484039
817.269897	30.237095
817.222717	43.668694
817.175598	40.303001
817.128479	40.296440
817.081360	53.719837
817.034180	40.283318
816.987061	53.702347
816.939941	53.693604
816.892822	60.395466
816.845642	33.547573
816.798523	53.667377
816.751404	26.829319
816.704224	30.178068
816.657104	43.583443
816.609985	40.224319
816.562744	30.163326
816.515625	36.860283
816.468506	23.452724
816.421265	46.897808
816.374146	60.287361
816.326965	33.487522
816.279785	26.785656
816.232605	36.824276
816.185486	50.206745
816.138306	23.425997
816.091125	53.536415
816.043945	6.690962
815.996765	46.829102
815.949585	20.066345
815.902405	30.094614
815.855164	23.403109
815.807983	56.826862
815.760803	33.422119
815.713623	43.441677
815.666443	40.093475
815.619263	26.724628
815.572083	33.400345
815.524841	10.018470
815.477661	6.677892
815.430420	53.414429
815.383240	50.067867
815.335999	33.373138
815.288757	46.714779
815.241577	36.698490
815.194336	33.356827
815.147156	53.362221
815.099915	40.015144
815.052673	43.342674
815.005432	50.002625
814.958252	26.663721
814.911011	36.656639
814.863770	43.314423
814.816528	39.976025
814.769287	23.315548
814.722046	43.293243
814.674866	63.264427
814.627563	39.949966
814.580322	39.943455
814.533081	49.921177
814.485840	19.965216
814.438599	39.923920
814.391296	23.285156
814.344055	49.888630
814.296753	39.904396
814.249573	49.872360
814.202209	33.242821
814.154968	46.532356
814.107727	36.555176
814.060486	33.226559
814.013184	46.509598
813.965881	46.502014
813.918640	33.210308
813.871338	59.768803
813.824097	26.559580
813.776794	16.597031
813.729431	26.550919
813.682190	46.456528
813.634949	43.131168
813.587585	26.537928
813.540283	43.117100
813.492981	19.896954
813.445740	53.049889
813.398376	26.520617
813.351074	53.032581
813.303833	33.139957
813.256531	43.074913
813.209167	33.129143
813.161865	56.310356
813.114502	46.365669
813.067261	46.358105
813.019958	43.039787
812.972595	36.412338
812.925232	23.167707
812.877930	56.255253
812.830566	26.468740
812.783325	29.772474
812.735962	49.612694
812.688599	59.525517
812.641296	29.757902
812.593933	19.835363
812.546631	49.580315
812.499207	66.096298
812.451904	42.955582
812.404541	62.770988
812.357239	36.335167
812.309875	39.631893
812.262512	19.812714
812.215149	36.317379
812.167786	9.903123
812.120361	39.606026
812.073059	59.399338
812.025635	29.694820
811.978333	46.184402
811.930969	29.685127
811.883545	46.169323
811.836182	26.378164
811.788818	23.077126
811.741394	36.258133
811.694031	62.617458
811.646667	23.065823
811.599304	46.124115
811.551880	29.646374
811.504456	42.815548
811.457092	26.343727
811.409668	19.754568
811.362305	42.794575
811.314941	29.622177
811.267517	39.489784
811.220154	42.773613
811.172729	62.505070
811.125305	39.470440
811.077881	36.175327
811.030457	29.593161
810.983032	32.875919
810.935608	29.583494
810.888184	29.578661
810.840820	36.145790
810.793396	45.996220
810.745911	32.849075
810.698486	26.274967
810.651062	45.973682
810.603638	13.133192
810.556213	39.393139
810.508728	39.386703
810.461365	45.943645
810.413879	39.373833
810.366394	22.964315
810.318970	16.400402
810.271545	49.193169
810.224060	36.069096
810.176636	32.784729
810.129211	36.057308
810.081726	36.051414
810.034302	29.491793
809.986816	49.144955
809.939331	55.688515
809.891907	42.578373
809.844421	49.120865
809.796936	32.741890
809.749451	42.557499
809.702026	26.184950
809.654480	22.908087
809.607056	49.080730
809.559570	42.529682
809.512085	49.064686
809.464600	26.163555
809.417114	29.429188
809.369568	52.310001
809.322144	39.226089
809.274597	45.756287
809.227173	35.945492
809.179626	39.206852
809.132141	22.866924
809.084656	45.726372
809.037109	32.656353
808.989563	55.506721
808.942078	52.233078
808.894592	19.584202
808.847107	42.425495
808.799561	42.418560
808.752014	42.411621
808.704529	42.404686
808.656982	42.397751
808.609497	35.869152
808.561951	35.863285
808.514404	48.896481
808.466858	45.629253
808.419373	32.586990
808.371826	32.581661
808.324280	35.833965
808.276733	58.627804
808.229187	32.565674
808.181641	39.072418
808.134094	22.788515
808.086548	32.549694
808.039001	35.798805
807.991455	39.046852
807.943909	35.787094
807.896301	48.792599
807.848755	29.270767
807.801208	45.524857
807.753662	29.261190
807.706055	39.008537
807.658508	48.752689
807.610901	45.495064
807.563416	35.740273
807.515747	48.728760
807.468201	12.992209
807.420654	35.722729
807.373108	12.987957
807.325439	29.218121
807.277832	19.475559
807.230347	38.944740
807.182739	51.917824
807.135132	35.687660
807.087463	25.950415
807.039917	22.702896
806.992310	48.641098
806.944702	38.906509
806.897156	29.175104
806.849548	48.617214
806.801880	42.128017
806.754272	19.440517
806.706665	32.395557
806.659058	19.434153
806.611450	45.338932
806.563843	38.855576
806.516235	48.561520
806.468567	22.658331
806.420959	22.654621
806.373291	9.707533
806.325684	42.059090
806.278076	19.408709
806.230469	16.171274
806.182800	58.207054
806.135132	42.031544
806.087524	35.559326
806.039856	35.553501
805.992249	45.242500
805.944580	22.617544
805.896973	41.997131
805.849243	64.600388
805.801636	35.524391
805.753967	38.747536
805.706299	51.654915
805.658691	35.506939
805.611023	41.955868
805.563354	58.083225
805.515625	41.942123
805.468018	61.289982
805.420349	32.252598
805.372681	35.472046
805.324951	35.466232
805.277283	38.684097
805.229614	22.562025
805.181885	22.558329
805.134216	22.554632
805.086548	19.329372
805.038879	32.210342
804.991211	28.984558
804.943481	32.199787
804.895752	32.194508
804.848083	48.283848
804.800354	28.965559
804.752686	35.396549
804.705017	9.652021
804.657288	35.384945
804.609619	51.460575
804.561890	35.373344
804.514160	25.721851
804.466431	9.644113
804.418701	3.214177
804.371033	44.991104
804.323303	25.704988
804.275513	32.125965
804.227844	32.120701
804.180115	48.173149
804.132385	0.000000
804.084595	35.315392
804.036865	25.679708
803.989197	32.094372
803.941467	12.835644
803.893738	6.416770
803.845947	57.741455
803.798218	41.695320
803.750488	32.068066
803.702759	32.062805
803.654968	38.469055
803.607178	35.257515
803.559448	32.047031
803.511719	41.654305
803.463928	16.018259
803.416199	35.234390
803.368408	38.431210
803.320679	28.818678
803.272888	28.813951
803.225159	41.613323
803.177307	12.801999
803.129578	12.799898
803.081787	3.199450
803.033997	44.784946
802.986206	19.190399
802.938416	35.176624
802.890686	15.986751
802.842896	35.165081
802.795105	51.140816
802.747253	31.957764
802.699524	31.952520
802.651672	44.726185
802.603882	35.136234
802.556091	22.355753
802.508301	38.317860
802.460510	38.311569
802.412720	41.497387
802.364929	35.107410
802.317078	41.483765
802.269226	22.333746
802.221436	6.380023
802.173645	31.894876
802.125793	51.023426
802.078003	25.507524
802.030151	35.067089
801.982361	15.936968
801.934509	38.242443
801.886719	6.372694
801.838867	28.672415
801.791016	35.038307
801.743164	38.217335
801.695312	25.474039
801.647522	41.388515
801.599609	28.648882
801.551819	38.192238
801.503967	50.914619
801.456055	47.724617
801.408203	22.267830
801.360352	28.625364
801.312500	25.440590
801.264709	47.693272
801.216797	25.432232
801.168945	31.785069
801.121094	38.135818
801.073181	44.484478
801.025391	31.769407
800.977478	34.940609
800.929565	15.879485
800.881714	47.630630
800.833862	3.174854
800.785950	41.266315
800.738037	22.216673
800.690247	25.386311
800.642334	22.209373
800.594421	31.722462
800.546570	53.919323
800.498596	50.739262
800.450745	19.024096
800.402832	25.361292
800.354980	28.526766
800.307068	47.536797
800.259155	50.697582
800.211243	38.016937
800.163330	28.508017
800.115417	25.336294
800.067505	9.499549
800.019653	41.157944
799.971680	31.654753
799.923767	50.639278
799.875854	31.644346
799.827942	44.294800
799.779968	18.980366
799.732117	18.977245
799.684143	18.974125
799.636230	22.132839
799.588257	25.290516
799.540344	41.090328
799.492371	37.923298
799.444458	56.875595
799.396545	34.751591
799.348572	41.063309
799.300598	37.898361
799.252686	12.630710
799.204712	31.571581
799.156738	44.192944
799.108826	31.561197
799.060852	50.489609
799.012878	15.775408
798.964966	22.081938
798.916992	25.232349
798.869019	12.614100
798.821045	25.224051
798.773071	34.677364
798.725098	15.759845
798.677124	31.514503
798.629150	28.358387
798.581116	53.557030
798.533203	40.948639
798.485168	44.091278
798.437256	25.190870
798.389221	28.335066
798.341248	22.034760
798.293274	50.356876
798.245300	18.880720
798.197266	40.901497
798.149292	25.166010
798.101257	47.178505
798.053223	15.723579
798.005310	28.297785
797.957275	34.580490
797.909241	31.431635
797.861206	37.711754
797.813232	18.852774
797.765198	21.991282
797.717224	43.975323
797.669189	56.530396
797.621155	15.700303
797.573120	28.255892
797.525146	9.417080
797.477112	28.246590
797.429016	25.103947
797.381042	28.237289
797.333008	25.095680
797.284912	15.682218
797.236877	50.174835
797.188843	37.624928
797.140808	12.539577
797.092773	21.940647
797.044800	31.338621
796.996704	34.466805
796.948608	34.461128
796.900635	65.778595
796.852539	56.372368
796.804504	9.393847
796.756409	34.438431
796.708374	34.432762
796.660339	46.946030
796.612244	25.033758
796.564209	53.187973
796.516113	59.435589
796.468018	28.149063
796.419983	21.890108
796.371887	62.532864
796.323792	62.522560
796.275757	25.004904
796.227600	15.625490
796.179504	34.370415
796.131470	43.736958
796.083374	24.988428
796.035278	37.476467
795.987183	46.837864
795.939087	53.074165
795.891052	12.485981
795.842896	28.088827
795.794800	15.602332
795.746643	6.239904
795.698547	49.911007
795.650452	37.427086
795.602356	3.118410
795.554260	18.707375
795.506165	15.586908
795.458069	21.818075
795.409912	28.047186
795.361816	18.695042
795.313660	24.922613
795.265564	15.574065
795.217407	15.571498
795.169312	24.910288
795.121216	31.132727
795.073059	24.902075
795.024902	37.346954
794.976746	43.564262
794.928589	31.112198
794.880493	43.549896
794.832336	31.101938
794.784180	24.877447
794.736023	24.873344
794.687866	24.869242
794.639709	40.405853
794.591553	34.183929
794.543396	15.535587
794.495239	43.492470
794.447144	18.636555
794.398926	43.478123
794.350830	31.050678
794.302612	3.104556
794.254456	24.832348
794.206238	31.035315
794.158081	24.824156
794.109924	52.742626
794.061707	40.325943
794.013550	40.319290
793.965393	31.009720
793.917236	46.506905
793.869019	40.299335
793.820862	37.193249
793.772583	21.692480
793.724426	52.673046
793.676270	46.468548
793.628052	34.071308
793.579895	37.162567
793.531677	21.674587
793.483459	34.054443
793.435242	27.858128
793.387085	27.853529
793.338806	40.226234
793.290649	15.469074
793.242371	3.093304
793.194214	34.020729
793.145996	27.830547
793.097778	49.468361
793.049561	37.095146
793.001343	18.544510
792.953064	40.173138
792.904846	33.987041
792.856628	33.981430
792.808411	43.241951
792.760193	49.411213
792.711914	37.052292
792.663696	6.174362
792.615417	18.520027
792.567200	30.861614
792.518982	33.942169
792.470703	15.425711
792.422485	43.184856
792.374207	24.672985
792.325928	6.167227
792.277710	15.415522
792.229492	43.156330
792.181152	30.820860
792.132935	30.815767
792.084656	27.729609
792.036377	21.563911
791.988098	18.480299
791.939819	30.795408
791.891602	9.237096
791.843323	12.314094
791.795044	30.780148
791.746765	12.310024
791.698486	36.923969
791.650208	15.382445
791.601929	58.443634
791.553650	27.679251
791.505371	24.599712
791.457031	36.893471
791.408752	33.813427
791.360474	27.660957
791.312195	27.656385
791.263916	21.506968
791.215576	27.647243
791.167297	9.214225
791.118958	33.779907
791.070679	39.915108
791.022339	42.978394
790.974060	27.624399
790.925720	12.275481
790.877441	24.546904
790.829102	27.610701
790.780823	55.212273
790.732422	36.802094
790.684143	36.796009
790.635803	24.526617
790.587524	18.391920
790.539185	30.648132
790.490845	21.450146
790.442505	39.829395
790.394104	12.253172
790.345825	61.255726
790.297424	42.871918
790.249146	30.617733
790.200745	24.490135
790.152405	30.607605
790.104065	42.843559
790.055725	24.477983
790.007385	42.829384
789.958984	27.528622
789.910706	21.407608
789.862305	42.808132
789.813904	30.572178
789.765564	33.623833
789.717224	36.674477
789.668823	39.724106
789.620483	27.496756
789.572083	27.492205
789.523682	39.704391
789.475342	33.590466
789.427002	42.744423
789.378601	18.316008
789.330200	54.938927
789.281799	36.619892
789.233459	36.613831
789.185059	42.709064
789.136658	36.601711
789.088257	42.694927
789.039856	54.884392
788.991455	6.097256
788.943115	27.433111
788.894714	21.333332
788.846252	48.753826
788.797913	15.233048
788.749451	36.553265
788.701050	30.456011
788.652649	36.541161
788.604248	54.802666
788.555847	27.396795
788.507385	48.697350
788.458984	36.516964
788.410522	18.255459
788.362122	33.462799
788.313660	33.457256
788.265259	42.574909
788.216858	27.365051
788.168396	30.400578
788.119995	48.632866
788.071533	27.351456
788.023071	24.308378
787.974670	15.190220
787.926208	15.187703
787.877747	18.222225
787.829346	12.146137
787.780884	21.252218
787.732422	36.426338
787.684021	21.245178
787.635559	30.345224
787.587097	30.340197
787.538635	21.234619
787.490173	12.132057
787.441711	30.325117
787.393250	36.384109
787.344788	12.126027
787.296326	6.062008
787.247803	27.274517
787.199341	54.539993
787.150879	33.324471
787.102417	30.289953
787.053894	18.170959
787.005432	48.447861
786.956909	21.192425
786.908508	27.242887
786.859985	33.291344
786.811523	9.077951
786.763000	15.127411
786.714478	24.199846
786.666016	54.440624
786.617493	45.359665
786.569031	39.305191
786.520508	27.206774
786.471985	15.112369
786.423523	21.153807
786.375000	30.214714
786.326477	15.104852
786.277954	33.225163
786.229431	12.079873
786.180908	12.077869
786.132446	33.208633
786.083923	9.055398
786.035339	51.305408
785.986816	45.261971
785.938354	18.101786
785.889771	39.214027
785.841248	27.143669
785.792725	57.293797
785.744202	45.224438
785.695679	18.086775
785.647095	30.139624
785.598572	24.107698
785.550049	18.077774
785.501465	24.099699
785.452942	18.071774
785.404358	18.068775
785.355835	24.087704
785.307251	39.136021
785.258728	48.159416
785.210205	45.141960
785.161621	18.053787
785.113037	45.126976
785.064453	33.087624
785.015930	33.082130
784.967346	18.041803
784.918762	33.071152
784.870239	33.065659
784.821594	21.038290
784.773071	15.024856
784.724487	36.053669
784.675903	33.043709
784.627319	12.013899
784.578735	21.020832
784.530151	48.039639
784.481567	21.013851
784.432983	54.026646
784.384399	45.014729
784.335754	21.003386
784.287170	14.999927
784.238586	8.998461
784.190002	23.991911
784.141357	8.995473
784.092773	29.979929
784.044128	23.979959
783.995605	38.960960
783.946960	47.943985
783.898376	38.948017
783.849670	23.964029
783.801086	53.910110
783.752502	26.950577
783.703857	32.934120
783.655212	38.915676
783.606628	23.944130
783.558044	17.955114
783.509338	26.928196
783.460693	2.991524
783.412109	29.910275
783.363464	35.886364
783.314819	23.920267
783.266174	35.874439
783.217529	11.956159
783.168884	17.931257
783.120300	17.928278
783.071594	29.875496
783.022949	5.974106
782.974304	17.919338
782.925659	20.902420
782.877014	17.913382
782.828369	14.925337
782.779663	29.845711
782.731018	38.792973
782.682373	41.770103
782.633667	17.898497
782.585022	20.878107
782.536377	41.749271
782.487671	26.834354
782.439026	35.773190
782.390320	26.825430
782.341614	29.801077
782.292969	17.877672
782.244263	23.832933
782.195557	11.914485
782.146912	17.868755
782.098206	23.821043
782.049500	8.931406
782.000854	23.813120
781.952087	17.856869
781.903442	35.707798
781.854736	29.751547
781.806030	29.746599
781.757324	20.819155
781.708618	35.684040
781.659912	23.785402
781.611206	8.918042
781.562500	38.638420
781.513794	20.801842
781.465027	29.711971
781.416382	41.589836
781.367615	11.880834
781.318909	11.878856
781.270203	11.876879
781.221436	29.687256
781.172791	17.809389
781.124023	8.903213
781.075256	38.574165
781.026550	26.700747
780.977844	11.865024
780.929077	11.863049
780.880310	11.861073
780.831604	44.471622
780.782837	41.499935
780.734131	14.818938
780.685364	44.449413
780.636597	23.702406
780.587891	5.924615
780.539062	23.694513
780.490356	26.651890
780.441589	29.608280
780.392822	8.881004
780.344055	17.759052
780.295288	35.512188
780.246521	50.300556
780.197815	2.958363
780.148987	23.662966
780.100281	26.616402
780.051453	26.611969
780.002686	32.520321
779.953918	26.603104
779.905151	20.687857
779.856384	17.729494
779.807556	17.726540
779.758789	23.631449
779.710022	26.580952
779.661194	38.388309
779.612427	26.572094
779.563599	32.471592
779.514832	23.611769
779.466003	23.607834
779.417236	47.207798
779.368408	35.399948
779.319580	38.343555
779.270813	23.592100
779.221985	5.897042
779.173218	32.428326
779.124390	38.317997
779.075562	41.258659
779.026733	8.839667
778.977966	20.622452
778.929138	8.836720
778.880310	32.395908
778.831482	38.279690
778.782593	38.273308
778.733826	47.097755
778.684937	26.488070
778.636108	35.311539
778.587341	32.363514
778.538513	44.124702
778.489624	35.293877
778.440796	23.525328
778.391968	32.341930
778.343079	35.276222
778.294250	20.574364
778.245422	38.203163
778.196594	47.011433
778.147705	29.377245
778.098816	38.184048
778.049988	29.367445
778.001099	29.362547
777.952271	38.164944
777.903381	29.352751
777.854553	17.608713
777.805664	14.671479
777.756836	44.007092
777.707886	29.333166
777.659058	23.462618
777.610168	20.526365
777.561279	14.659243
777.512451	20.519516
777.463562	26.377832
777.414673	38.094955
777.365784	20.509245
777.316895	32.223434
777.268005	0.000000
777.219116	17.570551
777.170227	52.702858
777.121277	14.637239
777.072388	26.342632
777.023560	40.970585
776.974670	40.963745
776.925720	-5.850987
776.876831	14.625025
776.827881	35.094200
776.778992	40.936398
776.730103	38.006023
776.681152	26.307468
776.632263	14.612820
776.583313	29.220758
776.534424	37.980644
776.485535	29.211000
776.436584	11.682449
776.387695	40.881744
776.338684	32.116005
776.289795	5.838298
776.240906	17.511969
776.191956	11.672696
776.143005	17.506119
776.094055	29.171991
776.045105	17.500271
775.996216	20.413572
775.947266	32.073112
775.898315	2.915250
775.849365	20.403343
775.800415	2.914276
775.751465	26.224104
775.702515	34.959629
775.653564	26.215340
775.604553	23.298632
775.555664	32.030266
775.506653	29.113556
775.457703	26.197821
775.408752	26.193443
775.359802	29.098961
775.310852	26.184687
775.261841	37.816006
775.212891	34.901245
775.163879	11.631804
775.114929	14.537325
775.065918	17.441874
775.016968	37.784409
774.968018	17.436041
774.918945	31.960732
774.869995	46.480564
774.820984	14.522748
774.772034	17.424383
774.723022	29.035784
774.674011	11.612371
774.625061	20.318251
774.576050	8.706366
774.527039	49.327820
774.478027	17.406908
774.429016	31.907326
774.380005	17.401085
774.330994	14.498479
774.281982	17.395264
774.232971	34.784710
774.183960	46.371853
774.134949	28.977560
774.085876	43.459068
774.036926	31.864653
773.987915	34.755623
773.938904	23.166538
773.889832	34.743992
773.840820	43.422726
773.791809	37.626732
773.742737	23.151037
773.693665	20.253767
773.644653	31.822021
773.595581	43.386406
773.546570	60.730801
773.497559	20.240211
773.448486	20.236824
773.399475	14.452456
773.350403	11.560029
773.301331	23.116188
773.252319	43.335594
773.203247	31.774117
773.154236	25.992653
773.105103	17.325535
773.056030	25.983950
773.007019	31.752844
772.957947	40.405945
772.908875	31.742212
772.859802	20.196207
772.810730	40.385651
772.761658	43.263092
772.712585	14.418616
772.663513	20.182682
772.614441	31.710331
772.565369	20.175922
772.516296	17.290751
772.467163	31.694401
772.418091	14.404132
772.368958	31.683783
772.319946	40.318058
772.270813	43.190685
772.221741	20.152277
772.172668	23.027313
772.123535	11.511728
772.074402	14.387249
772.025330	8.630903
771.976257	43.147285
771.927124	34.512043
771.877991	31.630739
771.828918	17.250238
771.779785	40.243813
771.730652	43.111145
771.681580	37.356731
771.632446	25.858017
771.583313	37.344208
771.534180	2.872150
771.485046	25.845016
771.435974	17.227123
771.386780	28.707058
771.337708	45.923592
771.288513	5.739487
771.239380	17.215574
771.190247	31.556593
771.141113	25.814701
771.091980	43.017288
771.042908	34.408062
770.993713	31.535433
770.944519	25.797392
770.895447	37.256649
770.846313	31.519571
770.797119	14.324675
770.747925	25.780090
770.698792	34.367687
770.649658	22.907949
770.600525	14.315067
770.551331	42.937996
770.502197	40.068741
770.453003	25.754156
770.403870	25.749834
770.354675	34.327354
770.305481	51.482391
770.256287	28.596529
770.207153	42.887596
770.157959	11.434773
770.108765	37.156780
770.059631	14.288671
770.010437	-5.714509
769.961243	28.567751
769.912048	17.137774
769.862854	19.990713
769.813660	25.698032
769.764465	14.274288
769.715271	19.980650
769.666077	2.853899
769.616882	31.387625
769.567688	39.941177
769.518494	22.819700
769.469238	14.259917
769.420044	19.960533
769.370850	25.659233
769.321594	17.103283
769.272461	31.350756
769.223206	37.044670
769.173950	28.491116
769.124817	39.880863
769.075562	45.570477
769.026306	22.781412
768.977112	28.471983
768.927856	11.386880
768.878662	42.693630
768.829407	31.303402
768.780212	17.071714
768.730957	25.603271
768.681763	39.820621
768.632446	25.594671
768.583252	22.746996
768.533997	8.528690
768.484741	22.739353
768.435486	31.261358
768.386230	31.256105
768.337036	17.045919
768.287781	11.362037
768.238525	17.040192
768.189209	39.753765
768.140015	28.390776
768.090759	17.031603
768.041443	45.409973
767.992188	31.214109
767.942932	36.883202
767.893677	25.530231
767.844421	34.034588
767.795105	14.178695
767.745850	22.682098
767.696594	39.686996
767.647278	17.005854
767.598022	25.504492
767.548767	19.833492
767.499451	28.328796
767.450134	8.497210
767.400879	19.823490
767.351562	22.651608
767.302307	36.802670
767.252991	48.118477
767.203735	31.130249
767.154419	50.931839
767.105103	31.119778
767.055786	19.800165
767.006470	22.624952
766.957214	22.621147
766.907837	16.963007
766.858582	39.573692
766.809265	31.088383
766.759949	31.083153
766.710632	28.252659
766.661316	22.598324
766.612000	19.770206
766.562683	22.590719
766.513367	28.233648
766.464050	11.291559
766.414673	33.868977
766.365356	33.863277
766.316040	22.571718
766.266724	31.030890
766.217346	25.384636
766.168030	36.660526
766.118713	16.917395
766.069336	36.648186
766.020020	42.279251
765.970703	22.545137
765.921326	28.176678
765.871948	16.903160
765.822632	14.083595
765.773254	16.897469
765.723938	28.157707
765.674561	5.630593
765.625244	14.074113
765.575867	16.886091
765.526489	8.441624
765.477112	36.574211
765.427795	22.503416
765.378418	14.062266
765.329041	28.119797
765.279663	19.680542
765.230286	30.921356
765.180908	33.726707
765.131531	22.480684
765.082153	28.096121
765.032715	25.282249
764.983337	22.469324
764.934021	53.355656
764.884644	25.269472
764.835205	22.457970
764.785828	50.521915
764.736450	25.256702
764.687073	39.281582
764.637634	33.664253
764.588257	28.048817
764.538818	30.848499
764.489441	25.235428
764.440063	28.034637
764.390625	25.226921
764.341187	44.840302
764.291809	30.822512
764.242432	42.023613
764.192932	14.005509
764.143555	44.810074
764.094116	28.001575
764.044739	25.197168
763.995300	19.594494
763.945862	22.389931
763.896484	11.193078
763.847046	30.775774
763.797607	39.162563
763.748169	39.155960
763.698730	36.352974
763.649292	8.387733
763.599854	44.727032
763.550415	53.104389
763.500977	30.739462
763.451538	8.382075
763.402100	27.935539
763.352661	30.723909
763.303162	16.755669
763.253723	30.713543
763.204285	36.291702
763.154846	39.076775
763.105408	36.279457
763.055908	19.531796
763.006470	41.846786
762.957031	16.735889
762.907532	33.466129
762.858032	22.306990
762.808594	33.454838
762.759094	22.299459
762.709656	27.869621
762.660156	11.145967
762.610718	41.790321
762.561218	44.568817
762.511780	16.710485
762.462280	16.707664
762.412781	30.625547
762.363342	25.053036
762.313843	27.832006
762.264343	25.044577
762.214783	41.733913
762.165344	5.563582
762.115845	0.000000
762.066345	27.808519
762.016846	44.486115
761.967346	36.138866
761.917847	22.235546
761.868286	25.010765
761.818848	30.563549
761.769287	22.224281
761.719788	24.998095
761.670288	24.993872
761.620789	41.649414
761.571228	24.985428
761.521729	11.102758
761.472229	24.976986
761.422668	22.198015
761.373169	36.065681
761.323608	5.547628
761.274109	38.826839
761.224609	27.728769
761.175049	27.724085
761.125488	22.175520
761.075989	41.572071
761.026489	24.939028
760.976929	30.475883
760.927307	38.780930
760.877808	0.000000
760.828308	38.767822
760.778687	24.917959
760.729187	19.377359
760.679626	35.980438
760.630066	2.767258
760.580566	22.134323
760.530945	30.429548
760.481384	24.892694
760.431824	24.888485
760.382263	22.119356
760.332703	5.528904
760.283142	33.167816
760.233521	30.398689
760.184021	24.867449
760.134460	30.388407
760.084839	24.859037
760.035278	27.616482
759.985657	30.372992
759.936096	38.649994
759.886536	35.883209
759.836975	19.318460
759.787354	19.315191
759.737732	33.106155
759.688232	13.791898
759.638611	38.610779
759.588989	33.089355
759.539368	33.083755
759.489807	35.834671
759.440186	33.072559
759.390564	46.844864
759.341003	35.816483
759.291443	30.301125
759.241760	13.770907
759.192200	52.320591
759.142578	38.545490
759.092957	41.291748
759.043335	13.761586
758.993713	19.262959
758.944092	13.756927
758.894470	41.263794
758.844849	30.254992
758.795227	16.499929
758.745667	32.994270
758.695984	46.733971
758.646362	10.994366
758.596741	35.725639
758.547058	19.233625
758.497437	35.713539
758.447815	16.480381
758.398193	16.477589
758.348511	27.457998
758.298889	32.944016
758.249268	38.428177
758.199646	5.488810
758.149963	24.695459
758.100281	27.434750
758.050659	10.972041
758.000977	32.910545
757.951355	5.484162
757.901672	35.641010
757.851990	38.376125
757.802368	27.406872
757.752686	13.701114
757.703003	19.178308
757.653320	16.435764
757.603699	8.216490
757.554016	24.645292
757.504333	30.116917
757.454651	35.586689
757.404968	21.895788
757.355286	16.419058
757.305603	27.360456
757.255920	16.413492
757.206238	13.675591
757.156616	24.611889
757.106873	21.873526
757.057190	13.668636
757.007446	32.799164
756.957764	24.595201
756.908081	38.252716
756.858398	13.659368
756.808716	38.239742
756.758972	35.502312
756.709290	27.304838
756.659607	10.920082
756.609924	21.836460
756.560120	46.394608
756.510437	19.100422
756.460693	35.466194
756.411072	32.732471
756.361328	32.726917
756.311584	24.541025
756.261902	27.263180
756.212097	32.710262
756.162415	16.352356
756.112671	40.873955
756.062927	35.418083
756.013184	38.136078
755.963501	29.958977
755.913757	32.676975
755.864014	24.503571
755.814270	16.332941
755.764587	32.660339
755.714844	13.606164
755.665100	16.324625
755.615356	19.042164
755.565552	10.879389
755.515808	43.510166
755.466064	27.189238
755.416321	16.310774
755.366577	21.744005
755.316833	13.587695
755.267029	40.756165
755.217285	16.299698
755.167542	40.742325
755.117737	13.578468
755.067993	19.006628
755.018188	24.432941
754.968445	32.571724
754.918701	24.424643
754.868896	43.414211
754.819092	18.990492
754.769348	40.686996
754.719543	35.256073
754.669739	37.961628
754.619995	24.399757
754.570190	35.238106
754.520386	48.782936
754.470642	24.387323
754.420837	29.801662
754.371033	32.505379
754.321228	35.208179
754.271484	40.617916
754.221619	18.951807
754.171875	35.190231
754.122070	21.651846
754.072205	18.942144
754.022400	21.644485
753.972595	13.525504
753.922852	16.227846
753.872986	29.745993
753.823181	24.333492
753.773376	27.032618
753.723572	37.839230
753.673706	27.023424
753.623901	29.720713
753.574097	32.417084
753.524292	10.803857
753.474426	35.106564
753.424561	24.300411
753.374756	26.995863
753.324951	29.690399
753.275085	29.685350
753.225281	40.473137
753.175415	21.582001
753.125610	13.486456
753.075745	26.968325
753.025879	10.785495
752.976074	37.742809
752.926208	16.172737
752.876343	21.559980
752.826477	29.639929
752.776672	35.023045
752.726807	29.629843
752.676941	21.545309
752.627075	43.083286
752.577209	26.922470
752.527344	5.383578
752.477539	32.295967
752.427673	24.217854
752.377808	29.594561
752.327881	29.589523
752.278015	10.757995
752.228149	13.445204
752.178284	24.197247
752.128357	16.128752
752.078491	48.378017
752.028625	40.308151
751.978760	18.807266
751.928833	29.549244
751.878967	26.858376
751.829102	51.022221
751.779175	32.219074
751.729309	26.844654
751.679382	37.576115
751.629456	37.569717
751.579590	45.612598
751.529663	21.461096
751.479797	24.139620
751.429871	21.453785
751.379944	21.450130
751.330078	32.169712
751.280212	40.205292
751.230225	13.399480
751.180298	21.435514
751.130371	21.431862
751.080505	29.463789
751.030579	37.492977
750.980652	26.776134
750.930725	34.803043
750.880859	26.767008
750.830872	26.762445
750.780945	42.812614
750.731018	13.376661
750.681091	48.147774
750.631165	42.790726
750.581177	21.391714
750.531311	29.408592
750.481384	32.076633
750.431396	32.071163
750.381409	29.393553
750.331482	32.060226
750.281616	13.356150
750.231628	37.390842
750.181641	16.021914
750.131714	21.358910
750.081787	37.371716
750.031799	32.027435
