#Wave		#Intensity
899.963257	76.791931
899.920715	85.826279
899.878235	49.680923
899.835815	67.735840
899.793274	72.239967
899.750793	49.657009
899.708252	81.243881
899.665771	90.256493
899.623230	58.657307
899.580688	45.113766
899.538208	72.170441
899.495667	72.158859
899.453186	36.073639
899.410645	45.084812
899.368103	81.139641
899.325623	81.126625
899.283020	45.063114
899.240540	81.100586
899.197998	67.572983
899.155396	67.562141
899.112854	58.544456
899.070312	81.048553
899.027771	81.035545
898.985229	67.518784
898.942688	85.510071
898.900085	89.996162
898.857544	71.985374
898.814941	89.967285
898.772400	35.981140
898.729797	58.459972
898.687256	67.442993
898.644714	53.945736
898.602112	71.916107
898.559570	89.880714
898.516907	53.919777
898.474304	80.866692
898.431763	49.410606
898.389221	94.314201
898.346558	58.375618
898.304016	67.345673
898.261353	67.334869
898.218750	58.347527
898.176147	89.751030
898.133606	94.223457
898.090942	94.208344
898.048340	62.795490
898.005676	71.754761
897.963074	62.775345
897.920471	80.698212
897.877808	98.615326
897.835205	71.708733
897.792542	71.697227
897.749939	94.087517
897.707275	62.714951
897.664673	76.141655
897.622009	76.129440
897.579346	53.729809
897.536743	76.105019
897.494080	71.616768
897.451477	58.179291
897.408752	80.543022
897.366089	53.686733
897.323425	49.204945
897.280823	93.921646
897.238098	80.491356
897.195435	89.420502
897.152710	67.054619
897.110046	75.983047
897.067383	102.784103
897.024719	62.554203
896.982056	67.011612
896.939331	80.401039
896.896667	84.854156
896.854004	75.909958
896.811279	80.362366
896.768555	98.204918
896.725830	75.873444
896.683167	107.098274
896.640442	75.849113
896.597778	71.375954
896.555054	80.285072
896.512268	84.731758
896.469604	66.882767
896.426880	44.581364
896.384094	89.148430
896.341431	98.047546
896.298706	106.943810
896.255920	71.284439
896.213257	89.091263
896.170532	44.538486
896.127747	89.062691
896.085022	97.953255
896.042236	57.872185
895.999512	89.019859
895.956787	66.754189
895.913940	97.890442
895.871216	102.323601
895.828430	84.514641
895.785767	62.263958
895.742981	80.040825
895.700195	88.919991
895.657410	80.015160
895.614624	97.780632
895.571838	93.321091
895.529114	79.976685
895.486267	115.503349
895.443481	102.159660
895.400757	75.497208
895.357910	75.485107
895.315125	106.550117
895.272339	79.899780
895.229553	97.639626
895.186768	97.623978
895.143921	75.424614
895.101135	106.464737
895.058350	75.400436
895.015442	93.126778
894.972656	93.111855
894.929871	84.230553
894.887024	128.541809
894.844238	110.794144
894.801392	110.776382
894.758545	132.910339
894.715698	93.022331
894.672913	119.580963
894.630066	110.705368
894.587219	66.412575
894.544373	101.816284
894.501526	66.391281
894.458679	88.507523
894.415894	92.917999
894.372986	84.055191
894.330078	84.041718
894.287292	75.183167
894.244446	114.967590
894.201538	88.422432
894.158691	83.987846
894.115845	92.813789
894.072876	79.541931
894.030029	114.875481
893.987183	114.857071
893.944275	110.421783
893.901428	101.571762
893.858521	88.309113
893.815552	92.709709
893.772766	119.179092
893.729858	136.813324
893.686951	83.839890
893.644043	57.354939
893.601135	123.513916
893.558167	66.157562
893.515320	119.064529
893.472412	88.181816
893.429504	101.392838
893.386536	96.968910
893.343689	96.953369
893.300720	132.187943
893.257812	92.516731
893.214844	114.526169
893.171936	101.295380
893.129028	114.489464
893.086060	101.262909
893.043091	88.040596
893.000183	61.618542
892.957275	96.813614
892.914307	109.997841
892.871338	131.976257
892.828430	57.180546
892.785461	109.944969
892.742493	105.530258
892.699524	87.927788
892.656555	118.683495
892.613525	87.899612
892.570618	105.462631
892.527649	131.807159
892.484619	114.214569
892.441711	144.941422
892.398682	127.352348
892.355652	83.424377
892.312744	127.311539
892.269775	100.955040
892.226746	96.550217
892.183777	78.982979
892.140686	114.068245
892.097717	122.823036
892.054749	78.945015
892.011719	78.932365
891.968750	109.610718
891.925720	105.209435
891.882751	109.575600
891.839722	100.793396
891.796692	70.105911
891.753662	87.618347
891.710632	96.364738
891.667603	74.451736
891.624573	109.470299
891.581482	113.830872
891.538513	122.567451
891.495422	122.547813
891.452454	100.648148
891.409363	70.004883
891.366272	109.365112
891.323242	139.964905
891.280273	113.703270
891.237122	126.802559
891.194092	109.295036
891.151062	122.390831
891.107971	83.037613
891.064880	135.460724
891.021851	144.177017
890.978760	109.207520
890.935730	104.822418
890.892639	157.208435
890.849548	113.521240
890.806458	91.675545
890.763367	135.308884
890.720276	122.194901
890.677185	109.085106
890.634155	122.155746
890.591003	148.308228
890.547913	122.116615
890.504761	104.654617
890.461731	108.997765
890.418579	108.980301
890.375488	130.755417
890.332336	135.092285
890.289246	148.141998
890.246155	148.118256
890.203003	100.181595
890.159912	95.810524
890.116760	117.566811
890.073669	108.840721
890.030457	100.117424
889.987366	104.453621
889.944214	121.843033
889.901062	126.174355
889.857910	108.753578
889.814758	147.881165
889.771606	95.672485
889.728516	130.441589
889.685364	143.462769
889.642212	130.399796
889.598999	130.378922
889.555908	143.393829
889.512695	108.614296
889.469543	117.284645
889.426392	95.549957
889.383240	82.507202
889.340027	138.937241
889.296875	112.868431
889.253723	104.169556
889.210449	160.569000
889.167297	121.492218
889.124146	108.457825
889.080933	130.128540
889.037781	130.107697
888.994507	121.414398
888.951294	147.408157
888.908081	138.714874
888.864868	108.353638
888.821716	78.002121
888.778503	155.979263
888.735291	99.637459
888.692078	129.941086
888.648804	129.920273
888.605652	142.889404
888.562378	108.232216
888.519226	125.529266
888.475952	121.181259
888.432739	112.507431
888.389465	129.795471
888.346252	95.168106
888.303040	151.379562
888.259766	121.084251
888.216492	129.712341
888.173279	142.660736
888.130066	133.993164
888.086731	112.363365
888.043457	129.629272
888.000244	133.928802
887.956970	95.031021
887.913696	125.248108
887.870483	112.273422
887.827209	116.572960
887.783936	112.237465
887.740601	142.432434
887.697327	103.570633
887.654053	107.868797
887.610779	120.793709
887.567505	125.087730
887.524231	99.191628
887.480957	116.423698
887.437622	142.272842
887.394348	116.386414
887.351074	129.297531
887.307739	112.039909
887.264404	107.713432
887.221130	112.004028
887.177734	116.293251
887.134460	180.871643
887.091125	159.313797
887.047852	129.152664
887.004517	137.740784
886.961182	137.718719
886.917908	141.999695
886.874573	154.883942
886.831238	159.160782
886.787842	137.630524
886.744568	150.509293
886.701172	150.485184
886.657837	150.461090
886.614502	146.138794
886.571167	137.520370
886.527832	171.872940
886.484436	124.587929
886.441101	124.567978
886.397766	128.842789
886.354370	120.234016
886.310974	150.268463
886.267639	85.853943
886.224304	141.636322
886.180908	128.739670
886.137451	167.334778
886.094177	111.538658
886.050781	145.834885
886.007385	145.811539
885.963989	115.772972
885.920593	137.190445
885.877197	124.308929
885.833862	154.289825
885.790405	119.983986
885.747009	145.671509
885.703613	128.513107
885.660217	167.040283
885.616821	192.707932
885.573364	154.141663
885.529968	141.273895
885.486511	184.054703
885.443115	162.626953
885.399719	196.832672
885.356323	188.244598
885.312805	119.772835
885.269409	141.138245
885.225952	124.010712
885.182556	171.021866
885.139099	179.544220
885.095642	175.241287
885.052185	162.392761
885.008728	209.367661
884.965332	158.068634
884.921875	166.586212
884.878418	192.184082
884.835022	170.802948
884.791504	175.044983
884.748108	145.136017
884.704590	179.256958
884.661072	196.297623
884.617615	179.199570
884.574219	153.575043
884.530762	136.489288
884.487244	174.848907
884.443726	157.765213
884.400269	153.476715
884.356812	187.552612
884.313232	183.260712
884.269836	178.970169
884.226257	191.723068
884.182739	174.653046
884.139343	195.920822
884.095825	166.080200
884.052307	187.342529
884.008789	170.284119
883.965332	157.487595
883.921753	187.252563
883.878235	140.416946
883.834717	182.938232
883.791199	178.655258
883.747681	187.132675
883.704163	174.345718
883.660645	182.821106
883.617126	182.791840
883.573547	191.263168
883.530029	152.986038
883.486511	157.210480
883.442932	157.185303
883.399414	195.388290
883.355896	208.097687
883.312317	186.833313
883.268738	169.821274
883.225220	191.018341
883.181641	199.476105
883.138062	220.661636
883.094482	212.140686
883.050964	212.106735
883.007385	212.072769
882.963745	199.316498
882.920227	241.685562
882.876648	186.534424
882.833069	165.310867
882.789429	186.474701
882.745911	194.919617
882.702332	211.835236
882.658691	224.509399
882.615112	207.532074
882.571533	207.498840
882.527954	190.529663
882.484314	203.199097
882.440735	245.492950
882.397156	190.438171
882.353516	160.788712
882.309875	219.991440
882.266296	203.036514
882.222656	177.628510
882.179016	177.600067
882.135437	232.534286
882.091797	198.679306
882.048218	219.780212
882.004517	194.389847
881.960876	207.034286
881.917236	202.776642
881.873657	219.639526
881.829956	206.934875
881.786316	173.121872
881.742737	227.977676
881.699036	223.720047
881.655396	189.920578
881.611694	206.769302
881.568054	227.831726
881.524414	215.139969
881.480774	206.670013
881.437073	198.202774
881.393372	206.603851
881.349731	227.649429
881.306091	177.032333
881.262390	193.861511
881.218689	189.616776
881.174988	168.521255
881.131348	176.919006
881.087646	193.737411
881.044006	189.495392
881.000244	189.465057
880.956604	147.338120
880.912903	172.568451
880.869141	176.749146
880.825500	197.759048
880.781799	210.348282
880.738098	185.076859
880.694397	210.280945
880.650574	151.378052
880.606934	151.353821
880.563232	155.533188
880.519470	142.899506
880.475769	201.708191
880.432007	176.466415
880.388306	180.639069
880.344604	159.608978
880.300842	176.381683
880.257080	172.154556
880.213379	176.325226
880.169617	159.506805
880.125854	188.859406
880.082092	134.278519
880.038391	172.016815
879.994629	197.158447
879.950867	192.932693
879.907104	205.482361
879.863342	163.521011
879.819580	163.494827
879.775818	184.426178
879.732056	150.869995
879.688293	175.986816
879.644531	138.253220
879.600708	129.853455
879.556946	146.585266
879.513123	138.186844
879.469299	167.472382
879.425598	142.328751
879.381775	163.233307
879.338013	159.022385
879.294189	125.523888
879.250427	150.604553
879.206604	125.483704
879.162781	150.556335
879.119019	142.169342
879.075134	183.954407
879.031372	163.024384
878.987549	154.639404
878.943726	129.542007
878.899963	146.233688
878.856140	187.984650
878.812317	171.247498
878.768433	133.635178
878.724609	179.543533
878.680786	137.767166
878.636963	125.222832
878.593079	129.376205
878.549255	200.292389
878.505432	162.711517
878.461609	145.999786
878.417725	154.317917
878.373840	150.123138
878.330017	154.268524
878.286194	150.075073
878.242310	158.387222
878.198425	170.864120
878.154602	129.169266
878.110718	137.480759
878.066895	137.458740
878.022949	124.942497
877.979065	91.609833
877.935181	116.575661
877.891296	112.394257
877.847473	129.024597
877.803589	129.003937
877.759705	137.304794
877.715759	137.282822
877.671936	133.101425
877.627991	166.350143
877.584106	137.216904
877.540222	149.667206
877.496277	99.762161
877.452393	128.838837
877.408447	124.662788
877.364563	128.797592
877.320679	103.852394
877.276672	112.142639
877.232788	149.499573
877.188904	128.715134
877.144958	120.391663
877.101013	116.221619
877.057068	112.052910
877.013184	107.885529
876.969238	107.868256
876.925354	82.962303
876.881348	141.013336
876.837402	99.522888
876.793457	91.214714
876.749512	128.509247
876.705566	103.619904
876.661560	145.044632
876.617676	107.730194
876.573730	91.141731
876.529724	115.979996
876.485779	149.093262
876.441833	111.802048
876.397888	128.344772
876.353821	82.789818
876.309875	86.915398
876.265869	120.006813
876.221924	91.025078
876.177917	115.831551
876.133972	128.221542
876.089966	144.743088
876.046021	136.450211
876.002014	136.428360
875.958008	115.738869
875.913940	132.251816
875.869995	140.495071
875.825989	119.814842
875.781982	111.533890
875.737976	140.427597
875.693970	128.016434
875.649902	132.124847
875.605896	123.847214
875.561890	111.444649
875.517883	132.061401
875.473877	99.030197
875.429810	111.391136
875.385864	82.498741
875.341736	131.976868
875.297791	140.202972
875.253723	119.565742
875.209656	111.302010
875.165588	119.527458
875.121521	135.992233
875.077454	135.970459
875.033447	119.470070
874.989380	111.212944
874.945374	107.076805
874.901306	156.471817
874.857239	160.563782
874.813110	131.723557
874.769104	135.818161
874.725037	144.026505
874.680969	168.689758
874.636841	152.207855
874.592773	135.731216
874.548706	131.597076
874.504639	164.470016
874.460571	147.999313
874.416443	127.423454
874.372437	172.610596
874.328308	135.600891
874.284180	160.229950
874.240051	184.851120
874.196045	143.750076
874.151917	131.407593
874.107788	147.809875
874.063660	127.260353
874.019531	151.867065
873.975464	119.011894
873.931335	135.405640
873.887207	155.896683
873.843079	155.871735
873.798950	147.644318
873.754822	131.218384
873.710754	155.796875
873.666565	135.275635
873.622437	163.944214
873.578308	184.407715
873.534180	139.307968
873.489990	122.899109
873.445862	139.263367
873.401672	131.050415
873.357605	180.165466
873.313416	139.196487
873.269287	159.640991
873.225098	175.986252
873.180969	98.209160
873.136780	106.376221
873.092590	130.903610
873.048462	130.882660
873.004272	143.129990
872.960083	167.639709
872.915894	134.907928
872.871765	138.973785
872.827576	138.951538
872.783386	167.532379
872.739197	138.907043
872.695007	151.139359
872.650818	155.199341
872.606567	134.756805
872.562439	130.652344
872.518188	151.042587
872.474060	110.202614
872.429810	150.994217
872.385559	159.130585
872.341370	142.786636
872.297241	142.763779
872.252930	150.897537
872.208740	159.028702
872.164551	163.080246
872.120361	158.977783
872.076050	167.103729
872.031860	150.776779
871.987610	171.124619
871.943359	142.581009
871.899109	130.338913
871.854919	179.187317
871.810608	146.584320
871.766418	150.631989
871.722168	146.537384
871.677917	158.723419
871.633667	134.282928
871.589417	158.672592
871.545166	162.715073
871.500916	158.621780
871.456665	146.396667
871.412354	117.911766
871.368103	126.023430
871.323853	138.197113
871.279602	134.111008
871.235229	117.836266
871.190979	117.817398
871.146790	150.294678
871.102417	150.270615
871.058105	150.246552
871.013916	138.042282
870.969604	158.317276
870.925293	137.998077
870.880981	105.511047
870.836731	154.183762
870.792419	162.272705
870.748047	121.685043
870.703796	145.998672
870.659485	158.139908
870.615173	113.518158
870.570862	145.928543
870.526550	121.587646
870.482178	137.777267
870.437866	133.703583
870.393555	109.376328
870.349243	117.459465
870.304932	125.540009
870.260559	105.274757
870.216248	113.354660
870.171875	97.145576
870.127563	109.271278
870.083252	117.346649
870.038879	101.144707
869.994507	121.354210
869.950195	117.290283
869.905823	117.271500
869.861511	101.079933
869.817078	92.978645
869.772766	117.215172
869.728394	117.196404
869.684021	117.177635
869.639648	100.999023
869.595276	113.100792
869.550903	113.082680
869.506531	84.798424
869.462158	100.934341
869.417786	84.771271
869.373413	68.613373
869.328979	88.779556
869.284607	68.591393
869.240234	88.751122
869.195862	100.837395
869.151428	84.689842
869.107056	92.740692
869.062622	60.473373
869.018250	60.463688
868.973877	76.575073
868.929443	60.444321
868.885010	80.579521
868.840637	64.453293
868.796143	52.359913
868.751770	60.405609
868.707336	68.448723
868.662903	92.592270
868.618469	48.301273
868.574036	44.269073
868.529663	64.381073
868.485229	96.556137
868.440735	68.382973
868.396301	76.415794
868.351868	64.339836
868.307434	68.350121
868.263000	44.219467
868.218506	52.250999
868.174072	40.186638
868.129578	40.180202
868.085144	52.225899
868.040710	44.184067
867.996277	76.305710
867.951721	40.154469
867.907288	64.236855
867.862793	60.212406
867.818359	60.202763
867.773865	64.205994
867.729370	60.183479
867.684937	88.254959
867.640442	72.197037
867.595947	72.185478
867.551514	56.135265
867.506958	44.099216
867.462463	28.058641
867.417969	60.116032
867.373535	48.085121
867.328979	80.129028
867.284485	40.058098
867.239929	56.072353
867.195435	48.054317
867.150940	64.062164
867.106445	60.048656
867.061890	48.031231
867.017395	44.021576
866.972839	52.017162
866.928345	52.008831
866.883789	36.000347
866.839294	47.992771
866.794739	55.982597
866.750183	83.960442
866.705688	51.967186
866.661133	55.955696
866.616638	59.942928
866.572021	59.933327
866.527527	47.938980
866.482910	71.896950
866.438416	83.866341
866.393860	63.887924
866.349304	51.900623
866.304749	47.900593
866.260193	43.901844
866.215637	47.885246
866.171021	31.918385
866.126465	59.837383
866.081909	35.896679
866.037292	47.854568
865.992676	63.795868
865.948181	59.799046
865.903564	35.873680
865.859009	59.779884
865.814392	31.877499
865.769836	35.856438
865.725159	63.734570
865.680603	59.741585
865.635986	39.821342
865.591431	43.796459
865.546753	79.617165
865.502197	51.742867
865.457581	35.816246
865.412964	43.768398
865.368347	79.566154
865.323792	87.508743
865.279114	71.586594
865.234497	71.575127
865.189880	47.709103
865.145264	79.502434
865.100647	67.566238
865.055969	59.607719
865.011353	63.571377
864.966675	71.506340
864.922058	67.522949
864.877441	31.770412
864.832825	71.471977
864.788147	59.550434
864.743469	31.755142
864.698853	39.687569
864.654175	51.585571
864.609497	83.317184
864.564880	71.403290
864.520203	55.526993
864.475586	51.552517
864.430908	87.228737
864.386169	71.357529
864.341492	67.382423
864.296875	59.445553
864.252136	39.624020
864.207520	79.235336
864.162781	71.300377
864.118103	83.170441
864.073425	67.317665
864.028687	83.143791
863.984009	59.378902
863.939331	55.411427
863.894653	79.146500
863.849976	55.393669
863.805237	94.945358
863.760559	59.331341
863.715820	87.005348
863.671143	59.312325
863.626404	63.256340
863.581665	55.340427
863.536987	75.092827
863.492249	75.080795
863.447571	75.068764
863.402832	71.106377
863.358093	43.446934
863.313354	63.185410
863.268616	82.917557
863.223877	90.799911
863.179138	67.102226
863.134338	35.519012
863.089600	98.648109
863.044861	74.960548
863.000183	67.059212
862.955444	86.768600
862.910645	51.264137
862.865906	74.912498
862.821106	67.016235
862.776367	55.180992
862.731628	66.994751
862.686890	82.744957
862.642090	55.154461
862.597290	66.962540
862.552490	82.705177
862.507751	74.816498
862.463013	82.678665
862.418213	74.792511
862.373352	35.422356
862.328613	82.638908
862.283813	39.345554
862.239014	66.876724
862.194275	47.199532
862.149475	39.326637
862.104675	62.912533
862.059814	78.628059
862.015076	66.823135
861.970215	47.161713
861.925415	51.083664
861.880615	74.648773
861.835754	86.421562
861.790955	51.059101
861.746155	62.831898
861.701294	78.527283
861.656494	54.960285
861.611694	74.576996
861.566833	54.942661
861.522034	54.933853
861.477173	51.001831
861.432373	70.606598
861.387512	70.595276
861.342651	31.370649
861.297852	58.810535
861.252991	43.120811
861.208130	27.436117
861.163269	70.538704
861.118408	47.018265
861.073608	50.928288
861.028687	47.003189
860.983826	50.911957
860.938965	50.903793
860.894165	35.235439
860.849243	39.144211
860.804382	39.137936
860.759460	70.436989
860.714600	27.387770
860.669739	23.471466
860.624817	31.290272
860.580017	46.927879
860.535095	58.650444
860.490173	27.365820
860.445251	42.996536
860.400391	42.989639
860.355469	42.982746
860.310608	31.255167
860.265686	50.781502
860.220764	54.679005
860.175903	46.860203
860.130920	54.661469
860.086060	54.652702
860.041138	46.837662
859.996216	58.537689
859.951294	31.215094
859.906372	58.518917
859.861450	39.006355
859.816467	54.600140
859.771606	50.691998
859.726685	58.481388
859.681702	35.083206
859.636780	23.385054
859.591858	11.690651
859.546936	50.651363
859.501953	31.165071
859.457031	38.950092
859.412109	3.894385
859.367065	35.043839
859.322144	35.038219
859.277161	42.817623
859.232239	27.243208
859.187256	50.586414
859.142273	42.797024
859.097290	46.680176
859.052429	23.336344
859.007385	42.776436
858.962402	42.769573
858.917419	27.212637
858.872498	42.755856
858.827454	42.748997
858.782532	34.970844
858.737488	34.965233
858.692505	15.537611
858.647522	46.605358
858.602478	50.481037
858.557495	23.295204
858.512512	42.701023
858.467529	42.694172
858.422485	38.806660
858.377502	58.200649
858.332458	38.794209
858.287537	54.303181
858.242493	54.294472
858.197449	19.387772
858.152405	23.261595
858.107422	46.515724
858.062378	19.378443
858.017334	58.126003
857.972290	38.744453
857.927307	38.738235
857.882263	50.351627
857.837219	34.853230
857.792236	42.591557
857.747131	38.713383
857.702087	42.577892
857.657043	30.960772
857.611938	42.564232
857.566956	19.344273
857.521912	23.209404
857.476807	38.676132
857.431763	38.669930
857.386719	23.198235
857.341614	38.657520
857.296570	46.381584
857.251465	42.509628
857.206421	57.958374
857.161316	50.222534
857.116272	38.626518
857.071167	54.068451
857.026123	30.891300
856.981018	3.860793
856.935974	27.021214
856.890869	38.595539
856.845764	15.435739
856.800659	38.583157
856.755554	42.434662
856.710510	30.856619
856.665344	30.851667
856.620239	30.846718
856.575134	38.552208
856.530029	26.982216
856.484924	34.685852
856.439758	34.680286
856.394653	34.674721
856.349548	38.521286
856.304443	42.366615
856.259338	26.956245
856.214233	50.053566
856.169006	34.646908
856.123962	19.245193
856.078796	26.938946
856.033630	42.325836
855.988525	57.707787
855.943420	30.772547
855.898254	30.767609
855.853027	30.762671
855.807922	19.223583
855.762756	38.440994
855.717590	19.217413
855.672485	26.900061
855.627258	61.475983
855.582153	34.574692
855.536987	57.615234
855.491821	42.244389
855.446655	49.917175
855.401489	49.909164
855.356262	46.062603
855.311096	57.569012
855.265930	30.698544
855.220764	42.203724
855.175537	19.180431
855.130371	34.519234
855.085205	42.183403
855.039978	19.171196
854.994812	11.500871
854.949646	38.330082
854.904358	26.826752
854.859192	42.149555
854.814026	38.311626
854.768799	49.797119
854.723511	30.639462
854.678406	42.122498
854.633179	42.115734
854.587952	34.452797
854.542725	15.309896
854.497498	42.095455
854.452209	26.783716
854.407043	26.779415
854.361755	11.475050
854.316589	22.946415
854.271301	42.061672
854.226074	22.939047
854.180908	38.225609
854.135681	22.931683
854.090332	26.749334
854.045105	38.207199
853.999878	26.740746
853.954651	42.014423
853.909363	22.913279
853.864136	19.091333
853.818848	22.905920
853.773621	3.817040
853.728333	49.613560
853.683044	41.973961
853.637817	22.891212
853.592529	19.072947
853.547241	30.511814
853.501953	30.506916
853.456726	26.689264
853.411438	34.309258
853.366089	19.057638
853.320801	41.920071
853.275513	26.672125
853.230225	34.287224
853.184937	34.281719
853.139648	19.042341
853.094421	45.694279
853.049072	53.301430
853.003784	22.839802
852.958435	19.030111
852.913147	26.637877
852.867859	30.438398
852.822571	57.062832
852.777222	22.821466
852.731873	26.620768
852.686584	38.023560
852.641296	34.215710
852.595886	30.409079
852.550598	38.005241
852.505249	45.598965
852.459900	37.993034
852.414551	30.389545
852.369263	37.980831
852.323914	18.987364
852.278564	11.390589
852.233215	45.555038
852.187927	18.978216
852.142517	22.770201
852.097168	49.327511
852.051819	34.144329
852.006470	37.932049
851.961121	26.548170
851.915771	45.503838
851.870361	26.539640
851.825012	45.489220
851.779602	30.321274
851.734253	11.368650
851.688843	30.311531
851.643555	41.671661
851.598145	49.240414
851.552734	37.871155
851.507324	18.932535
851.461975	26.501291
851.416565	37.852905
851.371216	41.631508
851.325806	11.352223
851.280396	26.484264
851.235046	22.697151
851.189636	18.911253
851.144165	30.253143
851.098755	34.029320
851.053345	37.804279
851.007935	30.238564
850.962524	18.896065
850.917175	22.671635
850.871765	45.335983
850.826294	22.664349
850.780945	41.544632
850.735474	30.209421
850.690002	30.204567
850.644592	26.424749
850.599182	45.292290
850.553711	41.511261
850.508301	52.824024
850.462891	33.952843
850.417419	33.947388
850.372009	60.341213
850.326538	33.936478
850.281067	33.931023
850.235657	33.925571
850.190186	48.995724
850.144714	15.073185
850.099182	33.909214
850.053772	30.136681
850.008301	30.131836
849.962830	33.892868
849.917358	18.826345
849.871887	26.352646
849.826355	30.112469
849.780945	45.161442
849.735474	33.865639
849.690002	37.622440
849.644470	33.854752
849.598999	37.610344
849.553528	48.885590
849.507996	48.877731
849.462524	18.796106
849.417053	30.068935
849.371521	26.306087
849.325989	22.544451
849.280518	33.811241
849.234985	7.512401
849.189514	11.266790
849.143982	11.264979
849.098450	41.298283
849.052979	30.030285
849.007446	26.272276
848.961914	18.762894
848.916443	30.015804
848.870911	37.513721
848.825378	52.510769
848.779846	22.500998
848.734253	33.746071
848.688721	33.740643
848.643250	33.735218
848.597656	14.991019
848.552124	33.724369
848.506592	18.732750
848.461060	44.951370
848.415466	26.217415
848.369934	44.936913
848.324341	22.464844
848.278809	22.461231
848.233276	18.714684
848.187683	29.938679
848.142151	37.417332
848.096558	44.893578
848.050964	59.848476
848.005371	29.919426
847.959839	22.435961
847.914246	37.387253
847.868652	26.166868
847.823120	33.637707
847.777466	33.632298
847.731934	18.681604
847.686340	14.942880
847.640747	14.940476
847.595093	29.876148
847.549500	41.073097
847.503906	18.666586
847.458313	33.594452
847.412720	55.981747
847.367188	29.852129
847.321533	33.578243
847.275879	41.033474
847.230286	37.297157
847.184692	29.832928
847.139038	29.828129
847.093445	18.639582
847.047791	33.545849
847.002197	37.267170
846.956543	37.261177
846.910950	44.706219
846.865356	37.249191
846.819641	11.172959
846.773987	33.513485
846.728333	37.231216
846.682739	40.947750
846.637085	14.887695
846.591431	33.491924
846.545776	26.045084
846.500183	18.600639
846.454468	37.195293
846.408813	11.156793
846.363159	37.183323
846.317505	29.741873
846.271851	3.717136
846.226135	11.149614
846.180481	29.727520
846.134827	14.861368
846.089172	44.576931
846.043457	33.427319
845.997803	29.708391
845.952148	44.555416
845.906433	44.548248
845.860718	33.405807
845.815002	7.422318
845.769348	44.526745
845.723633	29.679720
845.677979	29.674944
845.632324	22.252626
845.586548	37.081741
845.540894	22.245464
845.495178	33.362827
845.449463	29.651073
845.403748	40.763664
845.358032	14.820765
845.312317	7.409190
845.266602	29.631990
845.220886	33.330624
845.175110	25.919645
845.129456	33.319897
845.083679	22.209688
845.037964	37.010189
844.992249	37.004234
844.946533	33.298450
844.900818	29.593857
844.854980	66.575462
844.809265	44.376495
844.763550	7.394892
844.717773	25.877956
844.672058	22.177534
844.626282	33.260948
844.580505	62.816120
844.534729	14.777884
844.489014	36.938763
844.443237	29.546253
844.397522	36.926872
844.351746	40.613018
844.305969	7.382997
844.260193	36.909039
844.214417	14.761239
844.168640	18.448578
844.122803	33.202095
844.077087	25.819693
844.031250	47.943138
843.985474	36.873398
843.939697	18.433731
843.893982	22.116915
843.848145	29.484472
843.802368	22.109795
843.756531	29.474977
843.710754	40.521568
843.664917	14.732743
843.619141	29.460743
843.573303	18.409998
843.527527	40.495476
843.481689	29.446512
843.435913	40.482433
843.390137	36.796288
843.344299	55.185539
843.298462	22.070662
843.252625	22.067106
843.206787	29.418072
843.160950	44.119999
843.115112	25.732521
843.069336	33.079342
843.023438	33.074017
842.977661	44.091583
842.931763	29.389654
842.885986	33.058037
842.840088	25.707664
842.794250	25.703524
842.748413	36.713406
842.702576	33.036743
842.656677	18.350790
842.610840	18.347834
842.565002	36.689758
842.519104	47.688999
842.473206	18.338968
842.427429	33.004826
842.381531	29.332897
842.335632	36.660213
842.289795	47.650600
842.243835	32.983562
842.197998	29.313999
842.152161	40.300255
842.106262	29.304556
842.060303	36.624794
842.014465	62.252117
841.968567	25.629095
841.922668	32.946384
841.876770	29.280956
841.830933	18.297649
841.784973	25.612581
841.739075	29.266806
841.693237	51.208656
841.647278	36.571720
841.601318	51.192154
841.555420	29.247948
841.509521	18.277021
841.463562	40.202969
841.417664	51.159168
841.371765	29.229099
841.325867	36.530487
841.279907	25.567219
841.234009	58.429943
841.188049	25.558979
841.142090	29.205555
841.096130	43.801273
841.050232	32.845661
841.004272	43.787155
840.958374	18.241707
840.912415	21.886520
840.866455	21.882994
840.820496	32.819199
840.774536	21.875940
840.728638	47.390232
840.682678	54.672222
840.636719	32.798046
840.590759	18.218199
840.544800	32.787472
840.498779	43.709583
840.452820	43.702538
840.406799	36.412910
840.360901	40.047745
840.314880	40.041290
840.268921	29.116243
840.222900	18.194719
840.176941	50.937000
840.130981	50.928787
840.084961	47.283394
840.039001	47.275768
839.992981	14.544045
839.947021	32.718826
839.901001	61.792263
839.854980	39.976784
839.808960	43.604004
839.763000	25.431568
839.716980	10.897487
839.670959	32.687187
839.625000	32.681915
839.578918	29.045908
839.532959	3.630153
839.486877	32.666111
839.440857	29.031860
839.394836	50.797562
839.348816	36.278122
839.302795	32.645046
839.256775	43.519707
839.210754	29.008459
839.164673	47.131145
839.118652	25.374216
839.072571	39.867336
839.026611	25.366032
838.980530	39.854477
838.934509	39.848049
838.888428	43.463589
838.842407	39.835197
838.796265	36.207973
838.750244	21.721281
838.704224	36.196297
838.658142	39.809502
838.612061	39.803082
838.566040	32.560905
838.519958	25.321064
838.473877	28.933691
838.427734	47.009663
838.381714	43.386536
838.335632	28.919691
838.289551	50.601295
838.243469	25.296566
838.197388	43.358543
838.151245	50.576809
838.105225	39.732510
838.059143	14.445854
838.013000	28.887047
837.966919	46.933880
837.920837	21.658295
837.874695	43.309601
837.828613	25.259859
837.782471	46.903595
837.736450	39.681255
837.690308	25.247633
837.644165	50.487118
837.598083	46.873333
837.551880	21.630354
837.505798	32.440296
837.459717	39.642853
837.413513	36.033142
837.367432	14.410931
837.321289	50.430119
837.275146	18.007851
837.229004	28.807909
837.182861	10.801223
837.136780	46.797745
837.090637	32.393211
837.044434	25.190653
836.998352	25.186586
836.952148	35.975033
836.906006	21.581535
836.859863	25.174393
836.813721	53.936420
836.767578	64.713257
836.721375	28.756805
836.675171	32.346184
836.629028	25.154083
836.582825	32.335743
836.536743	25.145964
836.490540	61.058910
836.444336	50.275692
836.398132	25.133787
836.351990	32.309654
836.305786	25.125673
836.259644	35.888023
836.213440	21.529339
836.167236	46.639366
836.121094	50.218903
836.074890	53.797279
836.028625	68.132217
835.982422	35.853271
835.936218	32.262737
835.890076	25.089188
835.843872	46.586681
835.797668	28.664099
835.751404	28.659470
835.705261	50.145973
835.658997	32.231491
835.612793	17.903494
835.566528	17.900602
835.520325	32.215881
835.474121	42.947571
835.427856	35.783863
835.381653	39.355892
835.335388	17.886152
835.289185	28.613222
835.242920	46.488979
835.196716	21.452986
835.150513	32.174282
835.104248	32.169086
835.057922	28.590124
835.011719	46.451447
834.965454	53.589169
834.919250	39.292374
834.872986	14.285829
834.826660	39.279682
834.780457	28.562428
834.734192	39.266994
834.687927	28.553200
834.641663	24.980015
834.595398	35.679970
834.549072	49.943890
834.502869	39.235287
834.456543	24.963877
834.410278	17.828461
834.364014	46.346508
834.317688	53.468098
834.271423	28.511713
834.225159	46.324047
834.178833	17.814062
834.132568	42.746841
834.086243	35.616611
834.039978	32.049774
833.993652	32.044594
833.947388	32.039417
833.901062	32.034241
833.854736	35.587849
833.808472	24.907467
833.762146	24.903442
833.715820	32.013538
833.669495	24.895395
833.623169	39.115013
833.576843	21.332014
833.530518	24.883327
833.484192	39.096050
833.437866	53.304180
833.391541	53.295567
833.345215	31.972172
833.298889	39.070782
833.252563	7.102631
833.206177	53.261120
833.159851	60.352844
833.113525	24.847155
833.067200	24.843138
833.020813	39.032906
832.974487	21.287235
832.928101	28.378393
832.881775	39.013981
832.835388	53.192284
832.789062	49.638107
832.742676	31.905052
832.696289	28.355461
832.649963	38.982456
832.603577	28.346294
832.557190	10.628141
832.510803	53.132118
832.464417	21.249411
832.418091	31.868963
832.371643	53.106350
832.325317	17.699255
832.278870	31.853508
832.232483	46.003181
832.186096	17.690670
832.139709	31.838058
832.093323	3.536990
832.046936	63.655525
832.000549	35.358463
831.954102	24.746920
831.907776	42.416431
831.861328	45.943703
831.814880	28.268476
831.768494	45.928844
831.722046	45.921417
831.675659	31.786608
831.629272	56.500385
831.582825	42.368435
831.536438	28.241056
831.489929	42.354733
831.443542	31.760912
831.397156	17.642097
831.350708	24.694941
831.304260	35.272778
831.257812	31.740366
831.211365	38.787506
831.164917	24.678965
831.118530	31.724966
831.072021	56.390816
831.025574	28.190845
830.979065	59.895859
830.932678	42.272587
830.886169	28.177166
830.839722	24.651031
830.793274	49.294086
830.746826	45.765675
830.700378	45.758270
830.653931	45.750866
830.607422	10.556184
830.560974	24.627111
830.514465	52.763840
830.468018	52.755302
830.421509	35.164513
830.375061	56.254116
830.328552	24.607193
830.282043	28.117954
830.235535	52.712635
830.189087	17.568035
830.142578	28.104305
830.096130	24.587288
830.049622	35.119011
830.003113	35.113331
829.956543	35.107647
829.910095	45.632553
829.863525	35.096283
829.817078	21.054361
829.770569	52.627384
829.723999	31.571320
829.677490	38.580921
829.630981	17.533945
829.584473	31.555990
829.537964	66.607422
829.491455	24.535603
829.444885	38.549706
829.398376	31.535563
829.351868	56.054146
829.305298	42.033806
829.258789	21.013500
829.212219	35.016830
829.165710	56.017857
829.119141	56.008785
829.072571	41.999790
829.026001	17.497078
828.979492	34.988491
828.932922	45.477673
828.886353	41.972595
828.839783	31.474348
828.793274	10.489751
828.746704	31.464157
828.700134	34.954514
828.653564	41.938622
828.606995	62.897747
828.560425	52.406300
828.513794	38.425064
828.467285	62.867195
828.420715	41.904675
828.374146	34.914906
828.327515	41.891102
828.280945	52.355396
828.234375	41.877533
828.187744	31.403065
828.141113	0.000000
828.094604	24.416693
828.047974	38.362877
828.001404	31.382723
827.954773	38.350449
827.908142	27.886717
827.861572	27.882200
827.814941	38.331814
827.768311	34.841457
827.721680	45.286560
827.675110	34.830170
827.628479	41.789433
827.581909	13.927554
827.535278	27.850595
827.488586	34.807606
827.441956	31.321768
827.395386	41.755592
827.348694	38.269756
827.302063	34.785053
827.255493	34.779415
827.208862	20.864267
827.162170	52.152218
827.115540	31.286261
827.068848	31.281191
827.022217	62.552242
826.975647	31.271053
826.928955	41.687981
826.882263	41.681225
826.835571	41.674469
826.789001	27.778477
826.742249	62.491444
826.695618	24.298288
826.648987	31.235594
826.602295	41.640709
826.555603	38.164463
826.508972	48.565079
826.462280	38.152092
826.415588	38.145908
826.368896	45.074219
826.322266	41.600227
826.275574	51.991856
826.228882	24.258932
826.182190	41.579998
826.135498	45.037697
826.088806	34.638767
826.042053	31.169836
825.995361	38.090290
825.948669	20.773153
825.901978	38.077938
825.855286	13.844278
825.808594	38.065594
825.761841	17.299736
825.715149	31.134478
825.668396	48.423553
825.621765	31.124380
825.575012	31.119333
825.528320	24.200001
825.481567	20.739494
825.434814	24.192154
825.388123	48.376461
825.341370	34.549011
825.294617	51.815113
825.247864	20.722683
825.201172	37.985424
825.154419	51.789906
825.107727	48.329407
825.060974	34.515404
825.014160	24.156864
824.967468	27.603367
824.920654	48.298058
824.873962	55.188828
824.827148	20.692453
824.780396	37.930012
824.733643	48.266727
824.686890	10.341192
824.640137	51.697575
824.593384	68.918915
824.546631	44.790028
824.499817	13.779311
824.453003	44.775497
824.406311	51.655651
824.359497	48.204121
824.312744	41.311115
824.265930	30.978308
824.219177	65.388039
824.172302	34.409172
824.125549	61.926464
824.078735	30.958206
824.031982	20.635456
823.985168	30.948160
823.938354	30.943138
823.891541	51.563530
823.844788	44.681141
823.797974	13.745811
823.751221	44.666637
823.704346	27.482700
823.657532	44.652142
823.610718	51.513340
823.563904	41.203983
823.517090	34.331078
823.470276	44.623158
823.423462	27.455948
823.376648	17.157183
823.329773	17.154398
823.282959	24.012259
823.236084	48.016720
823.189331	30.862881
823.142456	34.286522
823.095642	37.709053
823.048767	41.130470
823.001953	37.696808
822.955017	30.837837
822.908203	47.962181
822.861328	30.827824
822.814514	51.371365
822.767639	20.545210
822.720764	37.660103
822.673950	23.961628
822.627075	23.957737
822.580200	41.063740
822.533386	34.214226
822.486450	27.366936
822.439636	37.623425
822.392700	27.358047
822.345825	17.096003
822.298950	34.186455
822.252075	37.598991
822.205200	30.757816
822.158325	34.169800
822.111450	40.997101
822.064514	34.158703
822.017639	47.814415
821.970764	27.318085
821.923828	27.313648
821.876953	40.963818
821.830078	58.022648
821.783142	20.475254
821.736267	20.471930
821.689331	37.525772
821.642456	23.876158
821.595520	17.051628
821.548584	27.278172
821.501648	23.864523
821.454712	27.269310
821.407837	13.632440
821.360901	51.113342
821.314026	37.477028
821.267029	23.845142
821.220154	47.682537
821.173157	23.837395
821.126221	37.452675
821.079285	40.850826
821.032349	54.458916
820.985413	47.643810
820.938477	34.025761
820.891541	23.814163
820.844604	37.416176
820.797668	40.811012
820.750671	34.003647
820.703735	30.598310
820.656738	37.391857
820.609802	27.189657
820.562866	23.787083
820.515930	23.783216
820.468933	27.176401
820.421997	40.757977
820.375000	30.563513
820.328003	40.744728
820.281006	20.369051
820.234009	27.154320
820.187073	47.512337
820.140076	10.179560
820.093140	33.926350
820.046082	20.352501
819.999146	33.915318
819.952148	20.345882
819.905090	30.513863
819.858093	27.119024
819.811096	30.503941
819.764099	64.386734
819.717163	30.494022
819.670105	40.652084
819.623108	37.258350
819.576111	20.319433
819.529114	27.088171
819.482117	37.240177
819.435059	33.849201
819.388062	16.921848
819.341064	10.151458
819.294006	47.365765
819.247009	37.209904
819.199951	20.293011
819.152954	33.816185
819.105896	50.716026
819.058838	33.805183
819.011841	40.559624
818.964783	13.517675
818.917725	33.788692
818.870667	37.161514
818.823669	37.155468
818.776611	40.526646
818.729553	33.766708
818.682434	23.632853
818.635376	37.131298
818.588379	16.875116
818.541321	13.497896
818.494263	26.991402
818.447144	47.227268
818.400146	23.609791
818.353027	30.350506
818.306030	40.460758
818.258911	37.082993
818.211853	33.706326
818.164795	33.700840
818.117676	30.325821
818.070618	43.796837
818.023499	33.684391
817.976440	23.575235
817.929321	53.877483
817.882202	37.034740
817.835144	43.761208
817.788025	26.925591
817.740967	40.381813
817.693848	40.375240
817.646729	30.276503
817.599670	23.544558
817.552551	36.992569
817.505432	47.073784
817.458374	50.427990
817.411255	36.974506
817.364075	43.690029
817.316956	63.844261
817.269897	47.035480
817.222717	20.154781
817.175598	30.227251
817.128479	60.444660
817.081360	36.932388
817.034180	30.212488
816.987061	40.276760
816.939941	53.693604
816.892822	30.197733
816.845642	40.257088
816.798523	33.542110
816.751404	30.182983
816.704224	30.178068
816.657104	30.173155
816.609985	30.168240
816.562744	50.272213
816.515625	36.860283
816.468506	23.452724
816.421265	50.247654
816.374146	23.445086
816.326965	30.138771
816.279785	40.178482
816.232605	53.562584
816.185486	36.818279
816.138306	33.465710
816.091125	30.114233
816.043945	33.454807
815.996765	33.449360
815.949585	36.788300
815.902405	30.094614
815.855164	26.746410
815.807983	16.713783
815.760803	43.448757
815.713623	46.783344
815.666443	46.775723
815.619263	30.065208
815.572083	23.380239
815.524841	46.752861
815.477661	43.406296
815.430420	10.015205
815.383240	40.054295
815.335999	33.373138
815.288757	40.041241
815.241577	36.698490
815.194336	20.014095
815.147156	66.702774
815.099915	40.015144
815.052673	43.342674
815.005432	43.335609
814.958252	39.995583
814.911011	23.326952
814.863770	33.318787
814.816528	29.982019
814.769287	26.646339
814.722046	36.632744
814.674866	36.626774
814.627563	53.266621
814.580322	46.600697
814.533081	43.265018
814.485840	29.947823
814.438599	33.269932
814.391296	36.590961
814.344055	43.236813
814.296753	23.277563
814.249573	29.923416
814.202209	46.539948
814.154968	13.294959
814.107727	26.585583
814.060486	43.194527
814.013184	23.254799
813.965881	49.823586
813.918640	43.173401
813.871338	59.768803
813.824097	13.279790
813.776794	9.958219
813.729431	29.869781
813.682190	43.138203
813.634949	23.224476
813.587585	39.806892
813.540283	39.800400
813.492981	36.477749
813.445740	33.156181
813.398376	23.205540
813.351074	46.403507
813.303833	39.767948
813.256531	39.761459
813.209167	26.503315
813.161865	33.123737
813.114502	49.677502
813.067261	43.046810
813.019958	43.039787
812.972595	33.102127
812.925232	43.025745
812.877930	19.854795
812.830566	29.777334
812.783325	52.928844
812.735962	39.690155
812.688599	29.762758
812.641296	29.757902
812.593933	33.058937
812.546631	39.664253
812.499207	29.743334
812.451904	49.564133
812.404541	26.429890
812.357239	46.244759
812.309875	52.842525
812.262512	19.812714
812.215149	36.317379
812.167786	26.408327
812.120361	23.103514
812.073059	32.999634
812.025635	19.796547
811.978333	32.988861
811.930969	32.983475
811.883545	36.275898
811.836182	23.080893
811.788818	32.967323
811.741394	36.258133
811.694031	39.547867
811.646667	39.541412
811.599304	29.651217
811.551880	46.116581
811.504456	42.815548
811.457092	39.515591
811.409668	16.462141
811.362305	16.459452
811.314941	36.204884
811.267517	29.617338
811.220154	16.451389
811.172729	32.897408
811.125305	19.735220
811.077881	19.731997
811.030457	39.457546
810.983032	39.451103
810.935608	32.870548
810.888184	52.584286
810.840820	19.715887
810.793396	45.996220
810.745911	36.133984
810.698486	39.412453
810.651062	45.973682
810.603638	36.116276
810.556213	52.524185
810.508728	55.797829
810.461365	22.971823
810.413879	29.530375
810.366394	32.806168
810.318970	36.080887
810.271545	39.354534
810.224060	59.022156
810.176636	32.784729
810.129211	36.057308
810.081726	42.606220
810.034302	42.599255
809.986816	36.039635
809.939331	36.033745
809.891907	9.825779
809.844421	36.021965
809.796936	13.096756
809.749451	52.378460
809.702026	32.731186
809.654480	22.908087
809.607056	35.992538
809.559570	32.715137
809.512085	52.335667
809.464600	62.138443
809.417114	32.699097
809.369568	35.963127
809.322144	29.419567
809.274597	52.292900
809.227173	52.284351
809.179626	32.672375
809.132141	52.267254
809.084656	29.395523
809.037109	29.390717
808.989563	22.855709
808.942078	35.910240
808.894592	39.168404
808.847107	35.898499
808.799561	26.103729
808.752014	32.624325
808.704529	26.095192
808.656982	48.920483
808.609497	26.086657
808.561951	55.425079
808.514404	29.337889
808.466858	19.555393
808.419373	39.104389
808.371826	26.065329
808.324280	39.091599
808.276733	48.856503
808.229187	32.565674
808.181641	35.816383
808.134094	35.810524
808.086548	35.804665
808.039001	45.562119
807.991455	26.031237
807.943909	42.293839
807.896301	42.286919
807.848755	19.513845
807.801208	35.769531
807.753662	32.512432
807.706055	39.008537
807.658508	22.751255
807.610901	29.246828
807.563416	42.238503
807.515747	35.734425
807.468201	29.232471
807.420654	51.960331
807.373108	55.198818
807.325439	42.203953
807.277832	48.688896
807.230347	38.944740
807.182739	32.448639
807.135132	48.664993
807.087463	29.194216
807.039917	48.649063
806.992310	51.883839
806.944702	32.422089
806.897156	55.108528
806.849548	51.858360
806.801880	48.609253
806.754272	48.601295
806.706665	42.114227
806.659058	19.434153
806.611450	35.623447
806.563843	58.283367
806.516235	77.698433
806.468567	51.790470
806.420959	38.836494
806.373291	45.301823
806.325684	71.176918
806.278076	35.582630
806.230469	29.108294
806.182800	54.973328
806.135132	35.565151
806.087524	42.024658
806.039856	51.714184
805.992249	35.547680
805.944580	48.466167
805.896973	35.536034
805.849243	29.070175
805.801636	58.130825
805.753967	25.831690
805.706299	29.055891
805.658691	41.962746
805.611023	58.092743
805.563354	32.268459
805.515625	25.810537
805.468018	45.161037
805.420349	45.153641
805.372681	22.573120
805.324951	29.017828
805.277283	61.249821
805.229614	45.124050
805.181885	22.558329
805.134216	32.220901
805.086548	19.329372
805.038879	19.326206
804.991211	35.425571
804.943481	35.419765
804.895752	38.633411
804.848083	45.064922
804.800354	38.620747
804.752686	45.050152
804.705017	35.390747
804.657288	54.685825
804.609619	51.460575
804.561890	22.510309
804.514160	51.443703
804.466431	54.649975
804.418701	32.141773
804.371033	57.845707
804.323303	32.131233
804.275513	28.913370
804.227844	38.544838
804.180115	41.750061
804.132385	32.110165
804.084595	60.999313
804.036865	41.729527
803.989197	48.141560
803.941467	38.506931
803.893738	38.500618
803.845947	35.286446
803.798218	28.865992
803.750488	64.136131
803.702759	44.887928
803.654968	28.851791
803.607178	38.462746
803.559448	38.456436
803.511719	38.450127
803.463928	48.054775
803.416199	41.640640
803.368408	44.836411
803.320679	51.233208
803.272888	48.023251
803.225159	25.608198
803.177307	28.804497
803.129578	31.999746
803.081787	41.592846
803.033997	25.591396
802.986206	51.174397
802.938416	35.176624
802.890686	38.368202
802.842896	47.952381
802.795105	54.337116
802.747253	67.111305
802.699524	31.952520
802.651672	44.726185
802.603882	63.884064
802.556091	25.549433
802.508301	60.669941
802.460510	44.696831
802.412720	22.344748
802.364929	35.107410
802.317078	47.865883
802.269226	57.429630
802.221436	54.230194
802.173645	51.031803
802.125793	57.401352
802.078003	35.072845
802.030151	63.758343
801.982361	47.810905
801.934509	35.055573
801.886719	76.472328
801.838867	73.273949
801.791016	54.150112
801.743164	41.402111
801.695312	50.948078
801.647522	63.674637
801.599609	50.931347
801.551819	70.019096
801.503967	60.461109
801.456055	63.632820
801.408203	60.441254
801.360352	66.792519
801.312500	54.061253
801.264709	85.847885
801.216797	44.506409
801.168945	47.677605
801.121094	63.559696
801.073181	50.839405
801.025391	57.184933
800.977478	63.528378
800.929565	79.397423
800.881714	73.033630
800.833862	41.273098
800.785950	66.660973
800.738037	44.433346
800.690247	63.465778
800.642334	57.109814
800.594421	82.478401
800.546570	44.404148
800.498596	66.595276
800.450745	50.730923
800.402832	72.913719
800.354980	63.392811
800.307068	72.889755
800.259155	57.034779
800.211243	76.033875
800.163330	53.848476
800.115417	76.008881
800.067505	69.663353
800.019653	63.319912
799.971680	72.805931
799.923767	60.134144
799.875854	66.453125
799.827942	66.442200
799.779968	50.614307
799.732117	41.117363
799.684143	60.084728
799.636230	50.589348
799.588257	69.548920
799.540344	41.090328
799.492371	63.205498
799.444458	63.195107
799.396545	72.662422
799.348572	41.063309
799.300598	72.638527
799.252686	69.468903
799.204712	47.357372
799.156738	63.132778
799.108826	75.746872
799.060852	78.890015
799.012878	37.860977
798.964966	50.473003
798.916992	69.388962
798.869019	25.228199
798.821045	50.448101
798.773071	56.744778
798.725098	56.735439
798.677124	31.514503
798.629150	53.565842
798.581116	18.902481
798.533203	62.997906
798.485168	50.390034
798.437256	53.530602
798.389221	47.225113
798.341248	50.365162
798.293274	69.240707
798.245300	50.348591
798.197266	44.047768
798.149292	53.477772
798.101257	34.597569
798.053223	37.736591
798.005310	40.874580
797.957275	37.724171
797.909241	44.004288
797.861206	34.569107
797.813232	40.847675
797.765198	65.973846
797.717224	62.821892
797.669189	21.984043
797.621155	47.100906
797.573120	40.814068
797.525146	40.807346
797.477112	59.631691
797.429016	37.655918
797.381042	28.237289
797.333008	34.506561
797.284912	50.183098
797.236877	34.495197
797.188843	43.895752
797.140808	34.483841
797.092773	53.284431
797.044800	43.874069
796.996704	18.800076
796.948608	53.258110
796.900635	40.720081
796.852539	28.186184
796.804504	53.231800
796.756409	28.176899
796.708374	37.563011
796.660339	28.167618
796.612244	31.292198
796.564209	53.187973
796.516113	50.051022
796.468018	18.766043
796.419983	46.907375
796.371887	28.139790
796.323792	37.513538
796.275757	40.632969
796.227600	34.376080
796.179504	31.245832
796.131470	34.364750
796.083374	31.235535
796.035278	28.107349
795.987183	40.592815
795.939087	34.342106
795.891052	21.850466
795.842896	21.846865
795.794800	40.566063
795.746643	40.559376
795.698547	31.194380
795.650452	40.546009
795.602356	34.302505
795.554260	37.414749
795.506165	21.821672
795.458069	46.753017
795.409912	21.814478
795.361816	28.042562
795.313660	28.037939
795.265564	24.918505
795.217407	31.142996
795.169312	28.024075
795.121216	21.792910
795.073059	31.127594
795.024902	37.346954
794.976746	12.446932
794.928589	28.000978
794.880493	34.217773
794.832336	24.881550
794.784180	46.645214
794.736023	18.655008
794.687866	24.869242
794.639709	31.081427
794.591553	-3.107630
794.543396	15.535587
794.495239	21.746235
794.447144	40.379204
794.398926	15.527901
794.350830	27.945610
794.302612	43.463779
794.254456	34.144478
794.206238	40.345909
794.158081	37.236233
794.109924	21.717552
794.061707	27.917961
794.013550	18.608902
793.965393	9.302917
793.917236	34.105064
793.869019	15.499744
793.820862	24.795498
793.772583	61.978516
793.724426	12.393658
793.676270	34.076935
793.628052	24.779135
793.579895	37.162567
793.531677	15.481848
793.483459	27.862726
793.435242	21.667433
793.387085	27.853529
793.338806	34.037582
793.290649	27.844334
793.242371	24.746433
793.194214	30.927937
793.145996	37.107395
793.097778	27.825953
793.049561	6.182524
793.001343	9.272255
792.953064	37.082897
792.904846	33.987041
792.856628	21.624548
792.808411	27.798399
792.760193	18.529205
792.711914	27.789219
792.663696	43.220535
792.615417	21.606699
792.567200	37.033939
792.518982	15.428259
792.470703	33.936565
792.422485	37.015591
792.374207	49.345970
792.325928	27.752523
792.277710	33.914146
792.229492	15.412975
792.181152	24.656687
792.132935	33.897343
792.084656	24.648542
792.036377	24.644470
791.988098	12.320199
791.939819	21.556786
791.891602	52.343544
791.843323	40.020805
791.795044	30.780148
791.746765	27.697556
791.698486	21.538982
791.650208	18.458935
791.601929	39.987751
791.553650	36.905670
791.505371	30.749641
791.457031	43.042385
791.408752	30.739479
791.360474	24.587519
791.312195	15.364659
791.263916	15.362120
791.215576	24.575329
791.167297	30.714083
791.118958	24.567204
791.070679	42.985500
791.022339	46.048279
790.974060	30.693777
790.925720	42.964184
790.877441	21.478540
790.829102	24.542845
790.780823	21.471439
790.732422	27.601572
790.684143	36.796009
790.635803	33.724098
790.587524	27.587881
790.539185	30.648132
790.490845	30.643064
790.442505	27.574198
790.394104	21.443050
790.345825	30.627863
790.297424	33.685078
790.249146	21.432413
790.200745	30.612669
790.152405	30.607605
790.104065	27.542288
790.055725	30.597479
790.007385	36.710903
789.958984	30.587357
789.910706	33.640526
789.862305	15.288619
789.813904	30.572178
789.765564	15.283560
789.717224	30.562063
789.668823	15.278502
789.620483	21.386364
789.572083	21.382826
789.523682	39.704391
789.475342	30.536785
789.427002	51.903942
789.378601	24.421343
789.330200	33.573788
789.281799	33.568233
789.233459	21.358067
789.185059	27.455828
789.136658	39.651852
789.088257	39.645290
789.039856	18.294796
788.991455	27.437653
788.943115	42.673729
788.894714	9.142857
788.846252	12.188457
788.797913	30.466097
788.749451	33.507160
788.701050	30.456011
788.652649	24.360773
788.604248	21.312147
788.555847	24.352707
788.507385	24.348675
788.458984	39.560043
788.410522	30.425764
788.362122	30.420725
788.313660	42.581963
788.265259	27.369585
788.216858	45.608418
788.168396	42.560806
788.119995	21.276878
788.071533	42.546711
788.023071	12.154189
787.974670	6.076088
787.926208	9.112622
787.877747	24.296299
787.829346	24.292274
787.780884	18.216188
787.732422	18.213169
787.684021	15.175127
787.635559	27.310701
787.587097	33.374218
787.538635	48.536270
787.490173	6.066029
787.441711	30.325117
787.393250	12.128036
787.344788	15.157534
787.296326	21.217030
787.247803	12.122007
787.199341	27.269997
787.150879	15.147488
787.102417	24.231962
787.053894	9.085480
787.005432	12.111965
786.956909	12.109958
786.908508	27.242887
786.859985	18.158915
786.811523	27.233856
786.763000	27.229340
786.714478	15.124904
786.666016	21.171354
786.617493	30.239777
786.569031	21.164333
786.520508	42.321648
786.471985	27.202263
786.423523	15.109862
786.375000	9.064414
786.326477	24.167763
786.277954	9.061408
786.229431	24.159746
786.180908	24.155739
786.132446	6.037933
786.083923	24.147728
786.035339	15.089827
785.986816	24.139717
785.938354	30.169641
785.889771	39.214027
785.841248	18.095779
785.792725	30.154629
785.744202	27.134665
785.695679	30.144625
785.647095	-3.013962
785.598572	24.107698
785.550049	24.103697
785.501465	36.149548
785.452942	24.095699
785.404358	18.068775
785.355835	9.032888
785.307251	21.073242
785.258728	21.069744
785.210205	12.037856
785.161621	12.035858
785.113037	27.076187
785.064453	12.031863
785.015930	21.052265
784.967346	24.055738
784.918762	21.045277
784.870239	30.059690
784.821594	15.027350
784.773071	9.014914
784.724487	30.044724
784.675903	24.031788
784.627319	15.017373
784.578735	15.014880
784.530151	24.019819
784.481567	6.003958
784.432983	27.013323
784.384399	24.007856
784.335754	6.000967
784.287170	17.999912
784.238586	5.998974
784.190002	20.992922
784.141357	44.977364
784.092773	20.985950
784.044128	32.972443
783.995605	32.966965
783.946960	14.982495
783.898376	11.984006
783.849670	29.955036
783.801086	8.985018
783.752502	20.961559
783.703857	0.000000
783.655212	32.928650
783.606628	23.944130
783.558044	11.970076
783.509338	20.944151
783.460693	29.915245
783.412109	5.982055
783.363464	8.971591
783.314819	8.970100
783.266174	17.937220
783.217529	23.912317
783.168884	44.828144
783.120300	2.988046
783.071594	14.937748
783.022949	35.844635
782.974304	23.892452
782.925659	32.846661
782.877014	29.855637
782.828369	14.925337
782.779663	17.907427
782.731018	29.840748
782.682373	14.917893
782.633667	17.898497
782.585022	20.878107
782.536377	17.892546
782.487671	14.907974
782.439026	23.848793
782.390320	26.825430
782.341614	23.840862
782.292969	8.938836
782.244263	23.832933
782.195557	20.850348
782.146912	17.868755
782.098206	29.776304
782.049500	38.702759
782.000854	32.743038
781.952087	26.785303
781.903442	8.926950
781.854736	29.751547
781.806030	29.746599
781.757324	2.974165
781.708618	20.815691
781.659912	20.812227
781.611206	11.890723
781.562500	20.805304
781.513794	17.830149
781.465027	20.798380
781.416382	5.941405
781.367615	11.880834
781.318909	8.909142
781.270203	2.969220
781.221436	14.843628
781.172791	17.809389
781.124023	26.709639
781.075256	26.705193
781.026550	35.600994
780.977844	29.662558
780.929077	35.589146
780.880310	35.583221
780.831604	23.718197
780.782837	35.571373
780.734131	29.637877
780.685364	20.743059
780.636597	20.739605
780.587891	14.811538
780.539062	35.541771
780.490356	23.690569
780.441589	26.647451
780.392822	23.682680
780.344055	26.638577
780.295288	23.674791
780.246521	20.711992
780.197815	29.583633
780.148987	17.747223
780.100281	29.573780
780.051453	5.913771
780.002686	17.738358
779.953918	11.823602
779.905151	17.732449
779.856384	8.864747
779.807556	26.589809
779.758789	11.815724
779.710022	14.767195
779.661194	35.435364
779.612427	11.809819
779.563599	14.759815
779.514832	5.902942
779.466003	14.754896
779.417236	29.504875
779.368408	26.549963
779.319580	8.848513
779.270813	17.694077
779.221985	11.794085
779.173218	35.376358
779.124390	20.632769
779.075562	20.629330
779.026733	20.625891
778.977966	17.676388
778.929138	20.619015
778.880310	20.615578
778.831482	20.612141
778.782593	14.720503
778.733826	29.436096
778.684937	20.601831
778.636108	26.483654
778.587341	20.594963
778.538513	14.708235
778.489624	5.882313
778.440796	38.228657
778.391968	14.700878
778.343079	20.577797
778.294250	32.331142
778.245422	41.141865
778.196594	8.814644
778.147705	20.564072
778.098816	14.686172
778.049988	14.683722
778.001099	26.426292
777.952271	14.678824
777.903381	14.676375
777.854553	11.739141
777.805664	26.408663
777.756836	5.867612
777.707886	14.666583
777.659058	26.395445
777.610168	17.594027
777.561279	11.727394
777.512451	5.862719
777.463562	0.000000
777.414673	32.234192
777.365784	23.439137
777.316895	32.223434
777.268005	8.786742
777.219116	26.355827
777.170227	11.711746
777.121277	32.201923
777.072388	20.488714
777.023560	17.558823
776.974670	11.703928
776.925720	26.329441
776.876831	11.700020
776.827881	11.698067
776.778992	17.544170
776.730103	20.464781
776.681152	20.461365
776.632263	17.535383
776.583313	14.610379
776.534424	26.294292
776.485535	35.053200
776.436584	20.444286
776.387695	11.680498
776.338684	26.276731
776.289795	14.595746
776.240906	23.349293
776.191956	11.672696
776.143005	29.176867
776.094055	26.254793
776.045105	5.833424
775.996216	26.246021
775.947266	23.325899
775.898315	26.237253
775.849365	-5.829526
775.800415	20.399933
775.751465	20.396524
775.702515	11.653210
775.653564	8.738447
775.604553	11.649316
775.555664	17.471052
775.506653	29.113556
775.457703	14.554345
775.408752	32.014206
775.359802	14.549480
775.310852	8.728230
775.261841	17.453541
775.212891	20.359060
775.163879	23.263609
775.114929	11.629860
775.065918	17.441874
775.016968	5.812986
774.968018	17.436041
774.918945	11.622085
774.869995	26.145317
774.820984	29.045496
774.772034	5.808128
774.723022	26.132204
774.674011	26.127834
774.625061	26.123466
774.576050	8.706366
774.527039	11.606546
774.478027	37.714966
774.429016	29.006660
774.380005	17.401085
774.330994	17.398174
774.281982	28.992107
774.232971	20.291080
774.183960	11.592963
774.134949	31.875317
774.085876	31.869984
774.036926	14.483932
773.987915	20.274113
773.938904	20.270721
773.889832	11.581331
773.840820	14.474241
773.791809	20.260548
773.742737	37.620434
773.693665	34.720745
773.644653	17.357466
773.595581	11.569708
773.546570	26.027487
773.497559	23.131672
773.448486	23.127800
773.399475	5.780982
773.350403	28.900072
773.301331	14.447618
773.252319	23.112318
773.203247	28.885561
773.154236	8.664218
773.105103	0.000000
773.056030	17.322634
773.007019	17.319733
772.957947	31.747528
772.908875	23.085245
772.859802	8.655518
772.810730	8.654068
772.761658	11.536825
772.712585	5.767447
772.663513	17.299442
772.614441	17.296545
772.565369	14.411373
772.516296	17.290751
772.467163	28.813091
772.418091	8.642479
772.368958	14.401719
772.319946	20.159029
772.270813	23.035032
772.221741	14.394483
772.172668	25.905729
772.123535	14.389660
772.074402	5.754900
772.025330	8.630903
771.976257	28.764856
771.927124	31.636040
771.877991	11.502087
771.828918	11.500159
771.779785	11.498232
771.730652	22.992611
771.681580	31.609541
771.632446	20.111792
771.583313	20.108419
771.534180	25.849350
771.485046	14.358342
771.435974	11.484749
771.386780	14.353529
771.337708	11.480898
771.288513	14.348717
771.239380	17.215574
771.190247	5.737562
771.141113	11.473201
771.091980	8.603457
771.042908	11.469354
770.993713	17.201145
770.944519	22.931015
770.895447	2.865896
770.846313	17.192493
770.797119	25.784414
770.747925	20.051182
770.698792	20.047819
770.649658	31.498430
770.600525	14.315067
770.551331	11.450132
770.502197	11.448212
770.453003	25.754156
770.403870	20.027649
770.354675	31.466740
770.305481	20.020929
770.256287	17.157917
770.207153	20.014212
770.157959	14.293468
770.108765	5.716427
770.059631	25.719606
770.010437	22.858036
769.961243	25.710976
769.912048	25.706661
769.862854	17.134897
769.813660	5.710674
769.764465	25.693720
769.715271	28.543785
769.666077	25.685095
769.616882	17.120522
769.567688	8.558824
769.518494	39.934475
769.469238	31.371819
769.420044	19.960533
769.370850	28.510260
769.321594	22.804379
769.272461	22.800549
769.223206	22.796721
769.173950	2.849112
769.124817	8.545899
769.075562	39.874168
769.026306	17.086060
768.977112	22.777586
768.927856	31.313921
768.878662	25.616177
768.829407	22.766111
768.780212	19.917002
768.730957	19.913656
768.681763	28.443300
768.632446	17.063114
768.583252	14.216872
768.533997	14.214484
768.484741	28.424192
768.435486	14.209708
768.386230	5.682928
768.337036	17.045919
768.287781	19.883566
768.238525	8.520096
768.189209	19.876883
768.140015	-2.839077
768.090759	22.708803
768.041443	5.676247
767.992188	5.675292
767.942932	11.348678
767.893677	36.877003
767.844421	19.853510
767.795105	14.178695
767.745850	14.176311
767.696594	17.008713
767.647278	14.171545
767.598022	11.335330
767.548767	25.500204
767.499451	19.830158
767.450134	22.659227
767.400879	31.151197
767.351562	22.651608
767.302307	33.971695
767.252991	19.813490
767.203735	28.300226
767.154419	-5.659093
767.105103	0.000000
767.055786	19.800165
767.006470	25.453072
766.957214	25.448792
766.907837	14.135839
766.858582	14.133461
766.809265	33.914600
766.759949	11.302965
766.710632	14.126329
766.661316	33.897488
766.612000	19.770206
766.562683	22.590719
766.513367	19.763554
766.464050	14.114449
766.414673	8.467244
766.365356	19.753578
766.316040	36.679043
766.266724	19.746929
766.217346	5.641030
766.168030	31.020445
766.118713	19.736961
766.069336	0.000000
766.020020	16.911699
765.970703	8.454427
765.921326	16.906006
765.871948	11.268774
765.822632	16.900314
765.773254	14.081224
765.723938	16.894625
765.674561	28.152966
765.625244	25.333403
765.575867	42.215229
765.526489	5.627749
765.477112	22.507206
765.427795	30.942198
765.378418	5.624907
765.329041	8.435939
765.279663	25.303555
765.230286	11.244129
765.180908	22.484470
765.131531	19.670599
765.082153	11.238448
765.032715	11.236555
764.983337	19.660658
764.934021	11.232769
764.884644	2.807719
764.835205	16.843477
764.785828	8.420320
764.736450	25.256702
764.687073	11.223310
764.637634	11.221418
764.588257	22.439054
764.538818	5.608818
764.489441	22.431492
764.440063	11.213856
764.390625	0.000000
764.341187	25.222670
764.291809	11.208186
764.242432	33.618889
764.192932	14.005509
764.143555	25.205667
764.094116	16.800945
764.044739	27.996855
763.995300	22.393707
763.945862	33.584896
763.896484	0.000000
763.847046	11.191191
763.797607	13.986629
763.748169	2.796854
763.698730	22.371059
763.649292	19.571377
763.599854	13.977197
763.550415	8.384904
763.500977	33.533958
763.451538	13.970125
763.402100	19.554876
763.352661	22.344662
763.303162	19.548281
763.253723	25.129263
763.204285	13.958346
763.154846	16.747190
763.105408	16.744364
763.055908	-2.790257
763.006470	2.789786
762.957031	22.314520
762.907532	16.733065
762.858032	2.788374
762.808594	19.515322
762.759094	16.724596
762.709656	11.147848
762.660156	36.224392
762.610718	8.358064
762.561218	11.142204
762.511780	11.140324
762.462280	30.630718
762.412781	5.568282
762.363342	8.351012
762.313843	22.265606
762.264343	30.610039
762.214783	5.564522
762.165344	25.036121
762.115845	11.125286
762.066345	5.561704
762.016846	0.000000
761.967346	22.239302
761.917847	25.014990
761.868286	22.231791
761.818848	16.671026
761.769287	16.668211
761.719788	16.665396
761.670288	22.216774
761.620789	11.106511
761.571228	16.656952
761.521729	19.429827
761.472229	13.876103
761.422668	30.522270
761.373169	33.291397
761.323608	22.190514
761.274109	24.960110
761.224609	5.545754
761.175049	13.862042
761.125488	2.771940
761.075989	30.486187
761.026489	16.626019
760.976929	30.475883
760.927307	22.160532
760.877808	19.387188
760.828308	13.845651
760.778687	13.843310
760.729187	38.754719
760.679626	11.070905
760.630066	22.138065
760.580566	8.300371
760.530945	22.130581
760.481384	13.829274
760.431824	19.357710
760.382263	24.884277
760.332703	16.586712
760.283142	33.167816
760.233521	19.344620
760.184021	22.104399
760.134460	11.050330
760.084839	22.096922
760.035278	24.854834
759.985657	30.372992
759.936096	5.521428
759.886536	16.561481
759.836975	16.558680
759.787354	13.796566
759.737732	30.347309
759.688232	16.550278
759.638611	8.273739
759.588989	19.302124
759.539368	16.541878
759.489807	13.782565
759.440186	22.048374
759.390564	8.266741
759.341003	16.530684
759.291443	22.037182
759.241760	30.295996
759.192200	11.014861
759.142578	22.025993
759.092957	16.516699
759.043335	13.761586
758.993713	22.014811
758.944092	24.762468
758.894470	19.256437
758.844849	30.254992
758.795227	13.749941
758.745667	13.747613
758.695984	13.745285
758.646362	2.748591
758.596741	21.985008
758.547058	16.485964
758.497437	16.483171
758.447815	10.986920
758.398193	16.477589
758.348511	27.457998
758.298889	10.981339
758.249268	24.703827
758.199646	32.932858
758.149963	21.951519
758.100281	16.460850
758.050659	24.687092
758.000977	21.940365
757.951355	27.420809
757.901672	13.708081
757.851990	13.705758
757.802368	8.222062
757.752686	27.402227
757.703003	24.657825
757.653320	16.435764
757.603699	27.388298
757.554016	10.953463
757.504333	8.213705
757.454651	8.212313
757.404968	19.158815
757.355286	27.365095
757.305603	13.680228
757.255920	10.942327
757.206238	16.410709
757.156616	16.407927
757.106873	32.810287
757.057190	10.934909
757.007446	10.933055
756.957764	13.664001
756.908081	13.661684
756.858398	10.927494
756.808716	24.582691
756.758972	10.923788
756.709290	16.382902
756.659607	21.840164
756.609924	21.836460
756.560120	13.645473
756.510437	30.014948
756.460693	24.553518
756.411072	24.549355
756.361328	21.817945
756.311584	27.267805
756.261902	13.631590
756.212097	10.903421
756.162415	5.450786
756.112671	24.524374
756.062927	27.244680
756.013184	10.896023
755.963501	24.511890
755.913757	19.061567
755.864014	16.335714
755.814270	13.610785
755.764587	16.330170
755.714844	19.048630
755.665100	24.486938
755.615356	13.601545
755.565552	19.038931
755.515808	29.913240
755.466064	13.594619
755.416321	2.718462
755.366577	8.154002
755.316833	10.870156
755.267029	13.585388
755.217285	21.732931
755.167542	24.445395
755.117737	24.441242
755.067993	24.437092
755.018188	16.288628
754.968445	19.000172
754.918701	27.138493
754.868896	29.847271
754.819092	21.703419
754.769348	16.274799
754.719543	16.272034
754.669739	27.115450
754.619995	13.555421
754.570190	2.710624
754.520386	8.130489
754.470642	2.709702
754.420837	-8.127727
754.371033	10.835127
754.321228	29.791534
754.271484	8.123584
754.221619	13.537004
754.171875	27.069408
754.122070	18.945364
754.072205	8.118062
754.022400	13.527803
753.972595	32.461208
753.922852	18.932486
753.872986	5.408362
753.823181	5.407443
753.773376	40.548923
753.723572	-8.108406
753.673706	-2.702343
753.623901	37.826363
753.574097	21.611389
753.524292	21.607714
753.474426	5.401010
753.424561	24.300411
753.374756	13.497931
753.324951	29.690399
753.275085	18.890676
753.225281	24.283882
753.175415	21.582001
753.125610	5.394582
753.075745	8.090497
753.025879	16.178242
752.976074	16.175489
752.926208	26.954561
752.876343	24.254978
752.826477	21.556313
752.776672	18.858562
752.726807	18.855354
752.676941	18.852146
752.627075	29.619759
752.577209	26.922470
752.527344	16.150734
752.477539	10.765323
752.427673	10.763491
752.377808	16.142487
752.327881	5.379913
752.278015	29.584486
752.228149	13.445204
752.178284	18.820082
752.128357	13.440626
752.078491	8.063003
752.028625	10.748840
751.978760	18.807266
751.928833	16.117769
751.878967	10.743350
751.829102	24.168421
751.779175	13.424614
751.729309	13.422327
751.679382	21.472067
751.629456	2.683551
751.579590	26.830940
751.529663	18.778460
751.479797	24.139620
751.429871	8.045169
751.379944	24.131395
751.330078	21.446476
751.280212	10.721411
751.230225	16.079376
751.180298	13.397197
751.130371	13.394914
751.080505	18.749683
751.030579	8.034209
750.980652	21.420908
750.930725	21.417257
750.880859	8.030103
750.830872	21.409956
750.780945	18.730518
750.731018	29.428656
750.681091	18.724134
750.631165	21.395363
750.581177	21.391714
750.531311	32.082100
750.481384	13.365263
750.431396	16.035582
750.381409	24.049271
750.331482	8.015057
750.281616	21.369841
750.231628	16.024647
750.181641	29.373508
750.131714	13.349318
750.081787	8.008224
750.031799	13.344765
