#Wave		#Intensity
899.963257	275.547516
899.920715	316.202087
899.878235	261.953949
899.835815	266.427643
899.793274	266.384888
899.750793	343.084778
899.708252	279.840027
899.665771	297.846436
899.623230	252.677628
899.580688	275.193970
899.538208	252.596542
899.495667	302.165222
899.453186	261.533875
899.410645	306.576721
899.368103	279.480988
899.325623	306.478363
899.283020	292.910248
899.240540	319.896759
899.197998	247.767593
899.155396	288.265137
899.112854	301.729126
899.070312	270.161835
899.027771	292.628357
898.985229	265.573883
898.942688	229.527039
898.900085	314.986572
898.857544	296.939697
898.814941	256.406769
898.772400	292.346771
898.729797	314.784454
898.687256	211.321381
898.644714	220.278427
898.602112	251.706390
898.559570	296.606354
898.516907	256.118958
898.474304	256.077850
898.431763	332.398621
898.389221	278.451447
898.346558	305.349396
898.304016	327.748962
898.261353	228.938568
898.218750	300.714172
898.176147	296.178375
898.133606	349.972839
898.090942	309.541718
898.048340	300.521271
898.005676	304.957733
897.963074	309.392761
897.920471	363.141937
897.877808	300.328491
897.835205	291.316711
897.792542	313.675385
897.749939	371.869720
897.707275	318.054382
897.664673	331.440155
897.622009	331.386993
897.579346	308.946411
897.536743	313.373627
897.494080	313.323364
897.451477	299.847107
897.408752	322.172089
897.366089	263.959778
897.323425	268.390625
897.280823	304.127258
897.238098	308.550201
897.195435	299.558685
897.152710	312.921539
897.110046	312.871368
897.067383	326.227814
897.024719	281.493927
896.982056	357.395264
896.939331	335.004333
896.896667	343.882629
896.854004	272.382812
896.811279	343.772339
896.768555	361.572632
896.725830	339.198944
896.683167	321.294830
896.640442	312.319885
896.597778	325.652771
896.555054	370.203369
896.512268	347.846191
896.469604	392.378906
896.426880	361.109039
896.384094	450.199554
896.341431	356.536530
896.298706	347.567383
896.255920	365.332764
896.213257	374.183289
896.170532	432.023315
896.127747	387.422699
896.085022	333.931549
896.042236	387.298462
895.999512	320.471497
895.956787	289.268158
895.913940	324.818298
895.871216	395.947845
895.828430	382.539948
895.785767	378.031189
895.742981	395.757416
895.700195	391.247955
895.657410	351.177643
895.614624	448.901978
895.571838	408.835236
895.529114	404.326569
895.486267	475.340729
895.443481	444.172424
895.400757	444.101227
895.357910	417.388214
895.315125	359.606659
895.272339	368.426758
895.229553	417.187500
895.186768	386.058441
895.143921	465.857910
895.101135	532.323669
895.058350	470.143890
895.015442	487.806946
894.972656	390.182983
894.929871	474.350983
894.887024	403.355347
894.844238	447.608337
894.801392	447.536560
894.758545	456.325531
894.715698	504.978363
894.672913	438.463531
894.630066	398.539307
894.587219	429.467957
894.544373	495.801056
894.501526	438.182465
894.458679	460.239105
894.415894	486.713318
894.372986	429.123871
894.330078	468.864319
894.287292	437.831390
894.244446	495.244995
894.201538	442.112152
894.158691	481.825012
894.115845	490.587189
894.072876	561.212463
894.030029	481.593353
893.987183	503.604065
893.944275	485.855865
893.901428	556.436584
893.858521	490.115601
893.815552	534.184509
893.772766	564.997192
893.729858	600.213257
893.686951	507.451935
893.644043	569.137451
893.601135	621.980774
893.558167	635.112610
893.515320	551.224670
893.472412	529.090881
893.429504	581.906677
893.386536	537.736694
893.343689	528.836548
893.300720	568.408142
893.257812	519.855957
893.214844	532.987183
893.171936	546.114197
893.129028	497.588837
893.086060	541.536438
893.043091	594.273987
893.000183	528.158936
892.957275	589.682922
892.914307	593.988342
892.871338	598.292358
892.828430	677.369568
892.785461	659.669800
892.742493	641.975708
892.699524	602.305359
892.656555	619.791565
892.613525	610.902283
892.570618	663.535706
892.527649	619.493652
892.484619	689.680298
892.441711	619.295166
892.398682	667.501953
892.355652	698.130310
892.312744	733.138855
892.269775	724.242676
892.226746	754.847168
892.183777	680.131165
892.140686	728.281860
892.097717	715.005554
892.054749	719.276794
892.011719	697.235901
891.968750	657.664307
891.925720	640.024048
891.882751	705.666870
891.839722	731.847717
891.796692	740.493713
891.753662	639.613953
891.710632	600.089539
891.667603	700.722168
891.624573	678.715881
891.581482	582.288696
891.538513	656.611328
891.495422	700.273254
891.452454	682.656982
891.409363	678.172302
891.366272	791.803406
891.323242	791.676514
891.280273	830.908508
891.237122	787.050354
891.194092	747.578064
891.151062	865.478027
891.107971	795.412964
891.064880	786.546143
891.021851	786.420105
890.978760	847.450317
890.935730	759.962524
890.892639	855.912659
890.849548	794.648682
890.806458	772.693848
890.763367	851.136536
890.720276	855.364258
890.677185	798.502991
890.634155	842.002136
890.591003	780.799133
890.547913	723.977051
890.504761	793.630859
890.461731	741.184753
890.418579	762.862122
890.375488	736.588806
890.332336	771.333374
890.289246	836.566528
890.246155	710.096375
890.203003	831.942810
890.159912	783.904297
890.116760	827.322021
890.073669	840.250366
890.030457	827.056946
889.987366	800.811096
889.944214	852.901245
889.901062	848.413757
889.857910	774.325439
889.814758	830.744202
889.771606	895.842407
889.728516	813.085876
889.685364	856.429199
889.642212	856.292053
889.598999	856.154846
889.555908	903.815674
889.512695	834.157776
889.469543	860.087402
889.426392	773.086060
889.383240	881.524353
889.340027	824.939880
889.296875	811.784485
889.253723	842.037231
889.210449	872.280273
889.167297	837.428528
889.124146	885.015808
889.080933	824.147400
889.037781	837.026184
888.994507	780.521179
888.951294	784.731689
888.908081	875.637634
888.864868	775.812012
888.821716	884.024048
888.778503	784.229065
888.735291	714.790466
888.692078	870.605286
888.648804	866.135132
888.605652	831.356567
888.562378	930.797058
888.519226	852.733276
888.475952	861.252502
888.432739	861.114563
888.389465	817.711487
888.346252	817.580566
888.303040	934.228088
888.259766	877.860840
888.216492	981.490112
888.173279	842.995239
888.130066	842.860229
888.086731	872.976929
888.043457	920.367859
888.000244	928.861023
887.956970	863.918396
887.913696	898.331238
887.870483	937.051270
887.827209	824.645752
887.783936	889.266052
887.740601	893.439758
887.697327	893.296692
887.654053	850.006104
887.610779	888.696533
887.567505	892.867615
887.524231	905.662659
887.480957	892.581665
887.437622	982.976013
887.394348	948.333740
887.351074	896.462830
887.307739	883.391602
887.264404	973.729431
887.221130	887.416565
887.177734	934.653198
887.134460	1068.004028
887.091125	942.965393
887.047852	1050.441650
887.004517	1028.751465
886.961182	972.638489
886.917908	1118.785400
886.874573	1002.443298
886.831238	1053.902466
886.787842	1058.034668
886.744568	1135.270020
886.701172	1139.387817
886.657837	1156.401001
886.614502	1091.742798
886.571167	1031.402832
886.527832	1048.424927
886.484436	1082.626099
886.441101	1116.816406
886.397766	1004.973755
886.354370	1129.340942
886.310974	1116.279907
886.267639	1077.466919
886.224304	1128.798584
886.180908	1115.743774
886.137451	1064.077515
886.094177	1149.706177
886.050781	1209.571655
886.007385	1192.223755
885.963989	1243.487427
885.920593	1174.693115
885.877197	1217.370239
885.833862	1332.892700
885.790405	1285.542725
885.747009	1383.879395
885.703613	1259.428467
885.660217	1370.586914
885.616821	1383.214722
885.573364	1455.782349
885.529968	1425.582031
885.486511	1425.353882
885.443115	1416.566284
885.399719	1544.708618
885.356323	1488.843628
885.312805	1355.999512
885.269409	1389.997803
885.225952	1372.670288
885.182556	1398.103760
885.139099	1346.581665
885.095642	1320.720947
885.052185	1367.517944
885.008728	1418.572632
884.965332	1371.352173
884.921875	1371.132568
884.878418	1413.620728
884.835022	1327.992920
884.791504	1383.282349
884.748108	1506.853394
884.704590	1468.199829
884.661072	1293.003906
884.617615	1365.330078
884.574219	1416.303101
884.530762	1480.055786
884.487244	1548.052490
884.443726	1509.429321
884.400269	1560.346558
884.356812	1525.996338
884.313232	1534.275757
884.269836	1597.947998
884.226257	1508.221436
884.182739	1542.058594
884.139343	1665.327026
884.095825	1486.204834
884.052307	1426.357910
884.008789	1690.069946
883.965332	1570.619507
883.921753	1519.299194
883.878235	1476.505371
883.834717	1578.374023
883.791199	1544.091797
883.747681	1607.639893
883.704163	1543.597412
883.660645	1568.860229
883.617126	1521.848389
883.573547	1572.608276
883.530029	1474.615356
883.486511	1495.624023
883.442932	1631.328613
883.399414	1622.572266
883.355896	1520.387207
883.312317	1609.314209
883.268738	1634.529785
883.225220	1685.206299
883.181641	1727.378296
883.138062	1616.770874
883.094482	1760.767700
883.050964	1802.907227
883.007385	1802.618530
882.963745	1696.310547
882.920227	1751.160278
882.876648	1784.795288
882.833069	1750.599609
882.789429	1796.938110
882.745911	1809.362549
882.702332	1724.338867
882.658691	1774.895142
882.615112	1668.727295
882.571533	1748.918823
882.527954	1731.702881
882.484314	1744.125610
882.440735	1697.287476
882.397156	1730.871338
882.353516	1777.138428
882.309875	1544.170654
882.266296	1620.062134
882.222656	1577.510254
882.179016	1509.600586
882.135437	1555.865845
882.091797	1492.208496
882.048218	1559.594238
882.004517	1563.570435
881.960876	1495.717163
881.917236	1465.906128
881.873657	1482.566772
881.829956	1486.552612
881.786316	1511.649536
881.742737	1498.742188
881.699036	1426.742920
881.655396	1540.466919
881.611694	1472.703857
881.568054	1518.878174
881.524414	1518.635132
881.480774	1573.222778
881.437073	1551.885498
881.393372	1547.420776
881.349731	1513.447144
881.306091	1525.850098
881.262390	1567.749634
881.218689	1432.660034
881.174988	1369.235229
881.131348	1588.058594
881.087646	1457.242310
881.044006	1423.320923
881.000244	1410.462036
880.956604	1384.978271
880.912903	1477.354370
880.869141	1291.952026
880.825500	1350.652222
880.781799	1287.331543
880.738098	1287.125488
880.694397	1286.919434
880.650574	1379.222168
880.606934	1332.754395
880.563232	1311.523071
880.519470	1193.631226
880.475769	1235.462646
880.432007	1264.676025
880.388306	1260.272583
880.344604	1323.074463
880.300842	1394.255249
880.257080	1326.849731
880.213379	1251.069458
880.169617	1263.461792
880.125854	1296.834595
880.082092	1158.152222
880.038391	1292.223877
879.994629	1271.042725
879.950867	1300.198608
879.907104	1258.055298
879.863342	1253.661011
879.819580	1228.307373
879.775818	1274.217285
879.732056	1148.288330
879.688293	1131.343872
879.644531	1181.436646
879.600708	1126.792847
879.556946	1160.117676
879.513123	1034.307617
879.469299	1126.251831
879.425598	1071.651733
879.381775	991.956238
879.338013	1054.569458
879.294189	1071.137207
879.250427	1091.883057
879.206604	1062.428711
879.162781	1045.530151
879.119019	949.189392
879.075134	1045.195435
879.031372	1019.947449
878.987549	1044.860840
878.943726	1132.447876
878.899963	981.854797
878.856140	1144.617676
878.812317	931.419250
878.768433	1044.024902
878.724609	972.875427
878.680786	1010.292542
878.636963	993.434448
878.593079	968.234863
878.549255	976.425415
878.505432	963.752808
878.461609	938.570007
878.417725	884.199951
878.373840	879.888367
878.330017	838.053284
878.286194	837.919189
878.242310	846.121216
878.198425	804.311584
878.154602	820.849854
878.110718	791.555847
878.066895	878.902893
878.022949	749.654968
877.979065	828.652527
877.935181	757.741821
877.891296	770.108765
877.847473	720.040466
877.803589	769.862244
877.759705	711.488464
877.715759	757.135559
877.671936	690.463623
877.627991	686.194336
877.584106	798.352905
877.540222	673.502441
877.496277	769.000000
877.452393	669.130737
877.408447	743.821289
877.364563	776.940308
877.320679	652.193054
877.276672	660.395508
877.232788	660.289795
877.188904	610.358887
877.144958	647.624146
877.101013	618.465027
877.057068	684.767761
877.013184	601.669312
876.969238	622.316895
876.925354	601.476685
876.881348	597.232971
876.837402	576.403381
876.793457	621.918518
876.749512	497.455139
876.705566	563.692261
876.661560	567.746155
876.617676	551.081421
876.573730	542.707581
876.529724	642.032104
876.485779	563.241211
876.441833	546.587830
876.397888	542.360168
876.353821	558.831299
876.309875	546.325378
876.265869	554.514221
876.221924	554.425476
876.177917	637.073547
876.133972	483.932922
876.089966	632.734070
876.046021	562.340271
876.002014	545.713440
875.958008	570.427307
875.913940	611.664673
875.869995	595.037903
875.825989	582.548035
875.781982	632.025391
875.737976	574.101074
875.693970	607.045654
875.649902	631.721924
875.605896	648.133728
875.561890	648.029968
875.517883	639.672424
875.473877	532.287292
875.429810	589.960449
875.385864	602.240845
875.341736	565.025940
875.297791	614.418884
875.253723	655.550110
875.209656	572.999207
875.165588	610.002197
875.121521	589.299683
875.077454	638.649170
875.033447	737.418701
874.989380	659.039673
874.945374	654.815857
874.901306	605.298889
874.857239	662.840271
874.813110	753.294067
874.769104	662.628052
874.725037	674.867065
874.680969	707.674133
874.636841	748.698120
874.592773	744.465149
874.548706	694.997070
874.504639	707.221069
874.460571	719.441101
874.416443	694.663330
874.372437	735.649902
874.328308	731.423035
874.284180	727.197449
874.240051	690.110840
874.196045	628.393188
874.151917	755.593689
874.107788	677.461914
874.063660	722.510376
874.019531	747.021790
873.975464	746.902222
873.931335	734.473022
873.887207	705.637634
873.843079	779.358643
873.798950	668.500671
873.754822	680.695374
873.710754	729.785400
873.666565	795.256714
873.622437	770.537781
873.578308	762.218506
873.534180	700.637085
873.489990	774.264404
873.445862	802.812317
873.401672	855.923035
873.357605	929.490051
873.313416	863.836975
873.269287	855.511963
873.225098	798.077148
873.180969	830.685791
873.136780	777.364685
873.092590	809.966125
873.048462	744.395142
873.004272	887.405945
872.960083	879.086304
872.915894	842.152527
872.871765	874.717407
872.827576	825.535645
872.783386	911.212708
872.739197	890.639343
872.695007	890.496704
872.650818	853.596436
872.606567	833.042053
872.562439	857.406006
872.518188	975.653442
872.474060	893.865662
872.429810	959.017334
872.385559	873.178101
872.341370	938.312195
872.297241	958.556763
872.252930	1015.499695
872.208740	978.638184
872.164551	909.172363
872.120361	1006.859253
872.076050	1023.000854
872.031860	1079.887695
871.987610	1006.375732
871.943359	998.067078
871.899109	989.761108
871.854919	973.312866
871.810608	956.869873
871.766418	875.294006
871.722168	923.999634
871.677917	988.968994
871.633667	903.357849
871.589417	952.035583
871.545166	915.272217
871.500916	955.797974
871.456665	833.647705
871.412354	886.371216
871.368103	894.359802
871.323853	910.475098
871.279602	894.073425
871.235229	893.930298
871.190979	840.972412
871.146790	812.403625
871.102417	832.580383
871.058105	913.661438
871.013916	848.554077
870.969604	795.645752
870.925293	832.047302
870.880981	840.030273
870.836731	746.574036
870.792419	831.647644
870.748047	782.840454
870.703796	746.215454
870.659485	802.864136
870.615173	737.868042
870.570862	664.785583
870.526550	693.049622
870.482178	632.154541
870.437866	615.846802
870.393555	599.544312
870.349243	603.498596
870.304932	615.551025
870.260559	583.060181
870.216248	603.208740
870.171875	550.491638
870.127563	562.544739
870.083252	554.361755
870.038879	416.716187
869.994507	513.732849
869.950195	469.161133
869.905823	477.173706
869.861511	464.967682
869.817078	464.893219
869.772766	412.274048
869.728394	412.208038
869.684021	420.223236
869.639648	412.076019
869.595276	395.852783
869.550903	375.596039
869.506531	367.459839
869.462158	444.111115
869.417786	379.452332
869.373413	411.680237
869.328979	367.224518
869.284607	363.130920
869.240234	266.253357
869.195862	290.411682
869.151428	334.726532
869.107056	266.125458
869.062622	282.209076
869.018250	278.132965
868.973877	249.876556
868.929443	274.014252
868.885010	229.651642
868.840637	241.699844
868.796143	265.827271
868.751770	237.595398
868.707336	213.398972
868.662903	201.287537
868.618469	221.380829
868.574036	209.271988
868.529663	241.429016
868.485229	245.413513
868.440735	197.103867
868.396301	261.422455
868.351868	172.913300
868.307434	265.359314
868.263000	156.778107
868.218506	245.177765
868.174072	196.914536
868.129578	164.738831
868.085144	172.747208
868.040710	196.819931
867.996277	160.643600
867.951721	160.617874
867.907288	168.621750
867.862793	172.608902
867.818359	228.770493
867.773865	136.437744
867.729370	148.452576
867.684937	168.486740
867.640442	152.415970
867.595947	128.329727
867.551514	136.328506
867.506958	132.297653
867.462463	128.268082
867.417969	124.239799
867.373535	168.297928
867.328979	112.180641
867.284485	116.168480
867.239929	124.160210
867.195435	144.162949
867.150940	152.147629
867.106445	172.139481
867.061890	152.098892
867.017395	136.066681
866.972839	148.048843
866.928345	132.022415
866.883789	172.001648
866.839294	131.980118
866.794739	103.967682
866.750183	135.935959
866.705688	119.924278
866.661133	175.860764
866.616638	127.878250
866.572021	151.831100
866.527527	147.811859
866.482910	191.725204
866.438416	159.745407
866.393860	131.768845
866.349304	135.740097
866.304749	135.718353
866.260193	87.803688
866.215637	143.655746
866.171021	171.561310
866.126465	115.685608
866.081909	127.632629
866.037292	163.503113
865.992676	123.604492
865.948181	131.557907
865.903564	155.452606
865.859009	119.559769
865.814392	131.494675
865.769836	163.346008
865.725159	175.270065
865.680603	155.328125
865.635986	143.356827
865.591431	135.370865
865.546753	135.349182
865.502197	214.931915
865.457581	147.244568
865.412964	167.115692
865.368347	135.262466
865.323792	115.352440
865.279114	167.035385
865.234497	151.103043
865.189880	147.103073
865.145264	139.129257
865.100647	143.081451
865.055969	174.849304
865.011353	194.687347
864.966675	202.601303
864.922058	178.737213
864.877441	202.536377
864.832825	166.767944
864.788147	206.441513
864.743469	154.806320
864.698853	162.719025
864.654175	186.501678
864.609497	154.731918
864.564880	178.508224
864.520203	162.614761
864.475586	174.485443
864.430908	206.177017
864.386169	162.536606
864.341492	186.292587
864.296875	202.114883
864.252136	194.157684
864.207520	202.050110
864.162781	186.173203
864.118103	186.143372
864.073425	201.952988
864.028687	186.083710
863.984009	229.598419
863.939331	189.982040
863.894653	205.780899
863.849976	138.484177
863.805237	162.198318
863.760559	221.503662
863.715820	225.422958
863.671143	181.891129
863.626404	154.187332
863.581665	162.068390
863.536987	142.281143
863.492249	181.774551
863.447571	209.402328
863.402832	197.517715
863.358093	193.536331
863.313354	154.014435
863.268616	177.680481
863.223877	169.756363
863.179138	157.887589
863.134338	189.434738
863.089600	114.431808
863.044861	161.756973
863.000183	165.675705
862.955444	161.705124
862.910645	134.075439
862.865906	122.225662
862.821106	149.800995
862.776367	173.425980
862.731628	130.048630
862.686890	130.027786
862.642090	165.463394
862.597290	126.047134
862.552490	141.780304
862.507751	169.321548
862.463013	161.420242
862.418213	157.457932
862.373352	204.662491
862.328613	98.379654
862.283813	118.036667
862.239014	98.348122
862.194275	153.398468
862.149475	121.912575
862.104675	102.232864
862.059814	121.873489
862.015076	98.269318
861.970215	98.253563
861.925415	86.449280
861.880615	117.866478
861.835754	106.062828
861.790955	109.973450
861.746155	106.028824
861.701294	121.717285
861.656494	98.143364
861.611694	102.052734
861.566833	94.187424
861.522034	102.020020
861.477173	82.387573
861.432373	121.600250
861.387512	58.829399
861.342651	121.561264
861.297852	105.858963
861.252991	82.321548
861.208130	62.711128
861.163269	62.701073
861.118408	78.363777
861.073608	82.268768
861.028687	70.504784
860.983826	90.075005
860.938965	62.650826
860.894165	97.876221
860.849243	93.946106
860.804382	97.844833
860.759460	70.436989
860.714600	78.250771
860.669739	86.062042
860.624817	78.225677
860.580017	78.213135
860.535095	74.290565
860.490173	39.094028
860.445251	78.175514
860.400391	3.908149
860.355469	62.520359
860.310608	82.044815
860.265686	70.312851
860.220764	50.773361
860.175903	70.290298
860.130920	66.374641
860.086060	93.690346
860.041138	58.547077
859.996216	50.732662
859.951294	66.332077
859.906372	66.321442
859.861450	70.211441
859.816467	46.800121
859.771606	77.987694
859.726685	93.570221
859.681702	46.777607
859.636780	62.360142
859.591858	89.628326
859.546936	54.547623
859.501953	81.808311
859.457031	42.845100
859.412109	66.204536
859.367065	54.512638
859.322144	31.145084
859.277161	66.172691
859.232239	66.162079
859.187256	38.912628
859.142273	81.703407
859.097290	77.800293
859.052429	42.783298
859.007385	73.886566
858.962402	101.091721
858.917419	66.087830
858.872498	66.077232
858.827454	101.043083
858.782532	101.026878
858.737488	81.585548
858.692505	38.844028
858.647522	108.745834
858.602478	66.013664
858.557495	81.533211
858.512512	124.221153
858.467529	93.150925
858.422485	54.329323
858.377502	54.320606
858.332458	46.553051
858.287537	77.575974
858.242493	31.025412
858.197449	65.918427
858.152405	50.400120
858.107422	38.763103
858.062378	69.762398
858.017334	93.001602
857.972290	69.740013
857.927307	69.728828
857.882263	69.717644
857.837219	50.343552
857.792236	30.975677
857.747131	85.169449
857.702087	73.543633
857.657043	58.051445
857.611938	65.781082
857.566956	54.163967
857.521912	38.682339
857.476807	50.278973
857.431763	11.600979
857.386719	0.000000
857.341614	65.717789
857.296570	88.898033
857.251465	57.967674
857.206421	73.413940
857.161316	34.769447
857.116272	50.214474
857.071167	50.206417
857.026123	73.366837
856.981018	54.051102
856.935974	46.322083
856.890869	50.174202
856.845764	27.012543
856.800659	38.583157
856.755554	38.576965
856.710510	92.569855
856.665344	65.559792
856.620239	53.981754
856.575134	80.959641
856.530029	50.109829
856.484924	65.517723
856.439758	38.533653
856.394653	69.349442
856.349548	65.486183
856.304443	30.812084
856.259338	69.316063
856.214233	42.353016
856.169006	84.692444
856.123962	73.131737
856.078796	38.484211
856.033630	46.173641
855.988525	69.249344
855.943420	88.471069
855.898254	34.613560
855.853027	34.608006
855.807922	46.136600
855.762756	61.505592
855.717590	49.965275
855.672485	23.057194
855.627258	26.895742
855.582153	57.624485
855.536987	46.092186
855.491821	149.775574
855.446655	11.519348
855.401489	72.944160
855.356262	53.739704
855.311096	42.217274
855.265930	49.885136
855.220764	26.856915
855.175537	53.705208
855.130371	61.367527
855.085205	42.183403
855.039978	23.005436
854.994812	23.001741
854.949646	49.829109
854.904358	42.156322
854.859192	30.654222
854.814026	22.986977
854.768799	53.627666
854.723511	57.448990
854.678406	15.317271
854.633179	26.800922
854.587952	38.280884
854.542725	76.549477
854.497498	53.576031
854.452209	53.567432
854.407043	11.476892
854.361755	38.250168
854.316589	45.892830
854.271301	80.299561
854.226074	34.408569
854.180908	38.225609
854.135681	64.973099
854.090332	22.927999
854.045105	42.027920
853.999878	68.761917
853.954651	61.111889
853.909363	30.551039
853.864136	38.182667
853.818848	61.082455
853.773621	41.987446
853.728333	61.062840
853.683044	41.973961
853.637817	61.043232
853.592529	72.477196
853.547241	34.325790
853.501953	57.200466
853.456726	26.689264
853.411438	41.933537
853.366089	41.926804
853.320801	30.487324
853.275513	3.810303
853.230225	34.287224
853.184937	72.372520
853.139648	26.659277
853.094421	41.886421
853.049072	41.879696
853.003784	72.326035
852.958435	19.030111
852.913147	60.886574
852.867859	41.852798
852.822571	19.020943
852.777222	11.410733
852.731873	26.620768
852.686584	30.418848
852.641296	41.819199
852.595886	34.210213
852.550598	22.803144
852.505249	64.598534
852.459900	41.792339
852.414551	15.194773
852.369263	7.596166
852.323914	53.164619
852.278564	15.187451
852.233215	49.351288
852.187927	22.773859
852.142517	41.745369
852.097168	53.121937
852.051819	56.907215
852.006470	26.552435
851.961121	45.511147
851.915771	41.711849
851.870361	22.748262
851.825012	18.953840
851.779602	37.901592
851.734253	94.738754
851.688843	37.889416
851.643555	83.343323
851.598145	34.089516
851.552734	22.722694
851.507324	22.719044
851.461975	37.858990
851.416565	26.497034
851.371216	41.631508
851.325806	34.056671
851.280396	15.133865
851.235046	68.091454
851.189636	45.387009
851.144165	30.253143
851.098755	34.029320
851.053345	60.486847
851.007935	34.018383
850.962524	26.454491
850.917175	30.228846
850.871765	30.223989
850.826294	33.996525
850.780945	18.883923
850.735474	45.314133
850.690002	15.102283
850.644592	33.974678
850.599182	41.517933
850.553711	30.190008
850.508301	30.185156
850.462891	37.725380
850.417419	0.000000
850.372009	52.798561
850.326538	64.102234
850.281067	18.850569
850.235657	37.695076
850.190186	22.613411
850.144714	52.756145
850.099182	48.979977
850.053772	22.602510
850.008301	48.964233
849.962830	37.658741
849.917358	48.948498
849.871887	37.646637
849.826355	63.988998
849.780945	48.924896
849.735474	26.339941
849.690002	56.433659
849.644470	22.569836
849.598999	33.849312
849.553528	22.562580
849.507996	37.598255
849.462524	18.796106
849.417053	60.137871
849.371521	56.370190
849.325989	33.816677
849.280518	41.324848
849.234985	48.830608
849.189514	7.511193
849.143982	52.569901
849.098450	33.789505
849.052979	60.060570
849.007446	41.285004
848.961914	22.515472
848.916443	60.031609
848.870911	56.270584
848.825378	48.759998
848.779846	60.002659
848.734253	48.744324
848.688721	37.489605
848.643250	26.238503
848.597656	48.720814
848.552124	18.735762
848.506592	18.732750
848.461060	59.935158
848.415466	44.944141
848.369934	37.447430
848.324341	26.208984
848.278809	22.461231
848.233276	44.915241
848.187683	22.454008
848.142151	18.708666
848.096558	41.152443
848.050964	63.589005
848.005371	29.919426
847.959839	71.047211
847.914246	22.432352
847.868652	37.381241
847.823120	71.012939
847.777466	37.369221
847.731934	74.726418
847.686340	100.864441
847.640747	59.761906
847.595093	37.345184
847.549500	59.742687
847.503906	55.999760
847.458313	52.258038
847.412720	59.713863
847.367188	33.583645
847.321533	63.425571
847.275879	89.527580
847.230286	29.837727
847.184692	33.562042
847.139038	11.185549
847.093445	41.007080
847.047791	18.636583
847.002197	63.354191
846.956543	37.261177
846.910950	18.627592
846.865356	44.699028
846.819641	52.140476
846.773987	70.750694
846.728333	26.061852
846.682739	40.947750
846.637085	52.106934
846.591431	52.098549
846.545776	59.531620
846.500183	59.522045
846.454468	55.792938
846.408813	66.940758
846.363159	55.774986
846.317505	55.766014
846.271851	40.888496
846.226135	52.031532
846.180481	40.875340
846.134827	59.445473
846.089172	89.153862
846.043457	59.426346
845.997803	44.562588
845.952148	85.397881
845.906433	37.123539
845.860718	37.117565
845.815002	55.667389
845.769348	55.658432
845.723633	55.649475
845.677979	37.093681
845.632324	48.214024
845.586548	25.957220
845.540894	29.660620
845.495178	11.120942
845.449463	48.182995
845.403748	33.352089
845.358032	51.872677
845.312317	37.045952
845.266602	48.151985
845.220886	37.034027
845.175110	37.028065
845.129456	14.808843
845.083679	51.822605
845.037964	48.113247
844.992249	3.700423
844.946533	70.296722
844.900818	11.097696
844.854980	40.685005
844.809265	36.980412
844.763550	48.066799
844.717773	29.574806
844.672058	25.873791
844.626282	7.391322
844.580505	44.340790
844.534729	48.028122
844.489014	33.244888
844.443237	36.932816
844.397522	51.697620
844.351746	33.228832
844.305969	47.989475
844.260193	55.363560
844.214417	11.070930
844.168640	33.207439
844.122803	47.958580
844.077087	36.885277
844.031250	25.815536
843.985474	44.248077
843.939697	14.746984
843.893982	25.803068
843.848145	73.711182
843.802368	66.329384
843.756531	55.265583
843.710754	58.940464
843.664917	51.564602
843.619141	22.095556
843.573303	18.409998
843.527527	88.353767
843.481689	25.765697
843.435913	25.761549
843.390137	36.796288
843.344299	51.506504
843.298462	44.141323
843.252625	55.167767
843.206787	36.772591
843.160950	69.856667
843.115112	47.788967
843.069336	69.834167
843.023438	25.724234
842.977661	33.068687
842.931763	25.715948
842.885986	14.692461
842.840088	14.690094
842.794250	80.782501
842.748413	22.028044
842.702576	25.695244
842.656677	36.701580
842.610840	58.713070
842.565002	58.703609
842.519104	47.688999
842.473206	25.674557
842.427429	33.004826
842.381531	21.999672
842.335632	65.988388
842.289795	40.319740
842.243835	58.637447
842.197998	18.321251
842.152161	32.972939
842.106262	40.293762
842.060303	36.624794
842.014465	32.957005
841.968567	43.935593
841.922668	65.892769
841.876770	36.601196
841.830933	51.233418
841.784973	62.201984
841.739075	0.000000
841.693237	40.235374
841.647278	54.857578
841.601318	40.222408
841.555420	14.623974
841.509521	76.763489
841.463562	54.822227
841.417664	32.888035
841.371765	47.497288
841.325867	21.918291
841.279907	80.354118
841.234009	18.259357
841.188049	69.374374
841.142090	43.808334
841.096130	21.900637
841.050232	47.443729
841.004272	51.085014
840.958374	40.131756
840.912415	62.011810
840.866455	43.765987
840.820496	51.052090
840.774536	47.397869
840.728638	36.454025
840.682678	21.868889
840.636719	65.596092
840.590759	40.080040
840.544800	43.716629
840.498779	21.854792
840.452820	32.776905
840.406799	50.978077
840.360901	83.736198
840.314880	58.241875
840.268921	69.151077
840.222900	50.945213
840.176941	29.106857
840.130981	87.306496
840.084961	69.106499
840.039001	54.548965
839.992981	47.268147
839.947021	47.260529
839.901001	39.983231
839.854980	47.245289
839.808960	50.871338
839.763000	50.863136
839.716980	32.692459
839.670959	7.263819
839.625000	43.575890
839.578918	25.415171
839.532959	36.301533
839.486877	25.406975
839.440857	43.547791
839.394836	61.682755
839.348816	65.300621
839.302795	61.662861
839.256775	36.266422
839.210754	65.269035
839.164673	61.633034
839.118652	18.124439
839.072571	39.867336
839.026611	43.484627
838.980530	83.332092
838.934509	28.980400
838.888428	57.951454
838.842407	47.077961
838.796265	57.932762
838.750244	7.240427
838.704224	47.055183
838.658142	68.761871
838.612061	65.132317
838.566040	54.268177
838.519958	65.111305
838.473877	25.316978
838.427734	18.080639
838.381714	65.079803
838.335632	50.609459
838.289551	75.901939
838.243469	39.751747
838.197388	57.811394
838.151245	25.288404
838.105225	32.508415
838.059143	57.783417
838.013000	64.995857
837.966919	36.102985
837.920837	46.926308
837.874695	32.482201
837.828613	57.736820
837.782471	28.863752
837.736450	61.325577
837.690308	36.068047
837.644165	72.124458
837.598083	36.056408
837.551880	39.655651
837.505798	28.835819
837.459717	36.038956
837.413513	61.256340
837.367432	10.808198
837.321289	68.440872
837.275146	54.023548
837.229004	18.004944
837.182861	68.407745
837.136780	28.798613
837.090637	46.790192
837.044434	39.585312
836.998352	64.765511
836.952148	61.157555
836.906006	28.775379
836.859863	28.770735
836.813721	28.766092
836.767578	46.737354
836.721375	39.540607
836.675171	53.910309
836.629028	21.560642
836.582825	64.671486
836.536743	32.330524
836.490540	32.325306
836.444336	-3.591121
836.398132	75.401360
836.351990	46.669498
836.305786	61.019493
836.259644	57.420837
836.213440	32.294006
836.167236	39.464081
836.121094	39.457710
836.074890	39.451340
836.028625	32.273155
835.982422	50.194584
835.936218	46.601730
835.890076	35.841698
835.843872	28.668728
835.797668	64.494225
835.751404	10.747301
835.705261	57.309685
835.658997	64.462982
835.612793	35.806988
835.566528	50.121685
835.520325	32.215881
835.474121	64.421356
835.427856	42.940636
835.381653	75.133972
835.335388	28.617844
835.289185	64.379753
835.242920	21.456451
835.196716	57.207962
835.150513	67.923485
835.104248	53.615143
835.057922	50.032719
835.011719	32.158695
834.965454	67.879616
834.919250	53.580513
834.872986	21.428743
834.826660	28.567041
834.780457	28.562428
834.734192	35.697266
834.687927	21.414900
834.641663	32.117161
834.595398	17.839985
834.549072	35.674206
834.502869	49.935822
834.456543	71.325363
834.410278	49.919689
834.364014	24.955812
834.317688	71.290802
834.271423	74.843246
834.225159	14.253553
834.178833	67.693436
834.132568	56.995789
834.086243	39.178276
834.039978	53.416286
833.993652	60.528679
833.947388	60.518898
833.901062	28.474878
833.854736	85.410835
833.808472	49.814934
833.762146	67.595062
833.715820	64.027077
833.669495	35.564850
833.623169	46.226833
833.576843	53.330032
833.530518	60.430939
833.484192	24.879305
833.437866	46.196957
833.391541	21.318226
833.345215	28.419708
833.298889	49.726452
833.252563	81.680252
833.206177	56.811859
833.159851	39.051842
833.113525	21.297562
833.067200	35.490196
833.020813	53.226692
832.974487	56.765961
832.928101	60.304085
832.881775	42.560707
832.835388	60.284588
832.789062	53.183685
832.742676	53.175087
832.696289	74.433090
832.649963	63.789474
832.603577	10.629860
832.557190	56.683422
832.510803	53.132118
832.464417	109.788620
832.418091	67.278923
832.371643	56.646774
832.325317	38.938362
832.278870	70.785568
832.232483	17.693531
832.186096	63.686413
832.139709	38.913181
832.093323	67.202812
832.046936	63.655525
832.000549	60.109383
831.954102	56.564388
831.907776	49.485836
831.861328	24.738916
831.814880	77.738312
831.768494	21.197927
831.722046	28.259333
831.675659	56.509525
831.629272	42.375290
831.582825	67.083359
831.536438	45.891716
831.489929	52.943417
831.443542	56.463840
831.397156	59.983128
831.350708	74.084824
831.304260	59.963726
831.257812	49.373901
831.211365	77.575012
831.164917	52.883499
831.118530	59.924934
831.072021	77.537369
831.025574	35.238560
830.979065	49.326000
830.932678	59.886166
830.886169	91.575790
830.839722	52.823639
830.793274	63.378113
830.746826	31.683929
830.700378	45.758270
830.653931	35.192974
830.607422	66.855835
830.560974	59.808697
830.514465	24.623127
830.468018	63.306366
830.421509	42.197414
830.375061	70.317642
830.328552	38.668446
830.282043	45.691677
830.235535	66.769333
830.189087	45.676888
830.142578	49.182537
830.096130	42.149635
830.049622	59.702320
830.003113	70.226662
829.956543	38.618412
829.910095	80.734520
829.863525	63.173309
829.817078	70.181206
829.770569	63.152859
829.723999	70.158485
829.677490	38.580921
829.630981	63.122200
829.584473	59.605759
829.537964	17.528269
829.491455	45.566120
829.444885	52.567780
829.398376	80.590881
829.351868	66.564301
829.305298	77.061974
829.258789	56.035999
829.212219	49.023560
829.165710	80.525665
829.119141	35.005493
829.072571	59.499702
829.026001	52.491238
828.979492	66.478134
828.932922	52.474239
828.886353	62.958893
828.839783	45.462948
828.793274	20.979502
828.746704	27.968140
828.700134	41.945415
828.653564	45.433510
828.606995	45.426151
828.560425	45.418793
828.513794	69.863754
828.467285	34.926220
828.420715	13.968225
828.374146	66.338326
828.327515	38.400177
828.280945	48.865040
828.234375	27.918356
828.187744	48.849209
828.141113	69.773285
828.094604	45.345287
828.047974	41.850410
828.001404	59.278477
827.954773	34.864044
827.908142	73.202629
827.861572	17.426374
827.814941	59.240074
827.768311	38.325603
827.721680	59.220882
827.675110	76.626373
827.628479	27.859623
827.581909	17.409443
827.535278	31.331921
827.488586	41.769127
827.441956	45.242554
827.395386	80.031548
827.348694	73.060448
827.302063	55.656082
827.255493	48.691181
827.208862	69.547562
827.162170	86.920364
827.115540	55.620018
827.068848	86.892197
827.022217	24.325872
826.975647	27.796492
826.928955	100.745949
826.882263	55.574966
826.835571	62.511703
826.789001	55.556953
826.742249	76.378433
826.695618	55.538948
826.648987	76.353676
826.602295	72.871239
826.555603	38.164463
826.508972	34.689342
826.462280	76.304184
826.415588	27.742477
826.368896	45.074219
826.322266	62.400341
826.275574	27.728989
826.228882	34.655617
826.182190	55.439999
826.135498	55.431011
826.088806	48.494274
826.042053	48.486412
825.995361	62.329563
825.948669	69.243843
825.901978	69.232613
825.855286	79.604599
825.808594	48.447117
825.761841	38.059422
825.715149	76.106499
825.668396	41.505905
825.621765	44.957439
825.575012	51.865555
825.528320	41.485718
825.481567	65.675064
825.434814	76.032486
825.388123	65.653770
825.341370	69.098022
825.294617	34.543407
825.247864	37.991585
825.201172	27.625763
825.154419	41.431923
825.107727	37.973103
825.060974	55.224648
825.014160	69.019615
824.967468	51.756313
824.920654	44.848198
824.873962	103.479050
824.827148	37.936165
824.780396	72.411835
824.733643	44.819103
824.686890	79.282478
824.640137	48.251068
824.593384	51.689186
824.546631	44.790028
824.499817	58.562073
824.453003	58.552570
824.406311	75.761620
824.359497	92.965088
824.312744	72.294449
824.265930	37.862377
824.219177	55.063610
824.172302	55.054676
824.125549	75.687897
824.078735	41.277611
824.031982	75.663338
823.985168	58.457638
823.938354	72.200653
823.891541	55.001099
823.844788	51.555161
823.797974	65.292603
823.751221	48.102531
823.704346	68.706749
823.657532	37.782581
823.610718	27.473782
823.563904	51.504978
823.517090	51.496620
823.470276	78.948662
823.423462	89.231834
823.376648	89.217346
823.329773	96.064629
823.282959	68.606453
823.236084	44.586956
823.189331	89.159431
823.142456	65.144394
823.095642	68.561913
823.048767	44.558010
823.001953	71.966637
822.955017	47.969967
822.908203	61.665661
822.861328	54.805019
822.814514	65.070396
822.767639	54.787228
822.720764	47.931038
822.673950	41.077076
822.627075	41.070408
822.580200	61.595608
822.533386	71.849876
822.486450	82.100807
822.439636	47.884361
822.392700	68.395119
822.345825	61.545612
822.298950	54.698326
822.252075	41.017082
822.205200	61.515633
822.158325	54.671680
822.111450	23.914976
822.064514	27.326962
822.017639	58.060360
821.970764	71.709976
821.923828	47.798885
821.876953	64.859375
821.830078	58.022648
821.783142	64.838310
821.736267	64.827774
821.689331	78.462982
821.642456	71.628471
821.595520	6.820651
821.548584	57.966118
821.501648	54.547482
821.454712	61.355946
821.407837	64.754089
821.360901	68.151123
821.314026	44.291035
821.267029	57.909634
821.220154	61.306118
821.173157	81.728210
821.126221	61.286198
821.079285	37.446590
821.032349	3.403682
820.985413	47.643810
820.938477	54.441219
820.891541	78.246536
820.844604	85.036758
820.797668	51.013763
820.750671	40.804379
820.703735	30.598310
820.656738	40.791115
820.609802	44.183193
820.562866	74.759407
820.515930	44.168831
820.468933	64.543953
820.421997	30.568481
820.375000	61.127026
820.328003	40.744728
820.281006	57.712315
820.234009	40.731480
820.187073	67.874763
820.140076	64.470543
820.093140	23.748446
820.046082	67.841667
819.999146	16.957659
819.952148	64.428627
819.905090	67.808586
819.858093	57.627926
819.811096	40.671921
819.764099	64.386734
819.717163	77.929169
819.670105	64.365799
819.623108	77.903824
819.576111	44.025436
819.529114	33.860214
819.482117	71.094887
819.435059	40.619041
819.388062	50.765545
819.341064	60.908749
819.294006	67.665382
819.247009	57.506218
819.199951	43.968189
819.152954	54.105896
819.105896	64.240303
819.058838	54.088295
819.011841	37.179653
818.964783	47.311863
818.917725	54.061905
818.870667	50.674793
818.823669	67.555397
818.776611	30.394983
818.729553	43.896725
818.682434	60.770191
818.635376	87.764885
818.588379	37.125256
818.541321	74.238434
818.494263	30.365326
818.447144	13.493505
818.400146	47.219582
818.353027	30.350506
818.306030	50.575947
818.258911	26.969450
818.211853	47.188854
818.164795	47.181179
818.117676	40.434429
818.070618	53.903797
818.023499	70.737221
817.976440	33.678909
817.929321	53.877483
817.882202	67.335892
817.835144	20.197481
817.788025	43.754086
817.740967	50.477268
817.693848	26.916826
817.646729	60.553005
817.599670	43.725605
817.552551	40.355530
817.505432	57.161026
817.458374	47.066124
817.411255	77.310326
817.364075	43.690029
817.316956	43.682915
817.269897	57.114513
817.222717	80.619125
817.175598	53.737335
817.128479	60.444660
817.081360	67.149796
817.034180	23.498602
816.987061	60.415138
816.939941	70.472855
816.892822	53.684860
816.845642	33.547573
816.798523	80.501068
816.751404	40.243977
816.704224	63.709255
816.657104	80.461746
816.609985	23.464188
816.562744	33.514809
816.515625	60.316830
816.468506	67.007782
816.421265	20.099062
816.374146	60.287361
816.326965	33.487522
816.279785	50.223103
816.232605	60.257908
816.185486	33.471165
816.138306	53.545135
816.091125	43.498337
816.043945	26.763847
815.996765	33.449360
815.949585	73.576599
815.902405	40.126152
815.855164	36.776314
815.807983	40.113079
815.760803	36.764332
815.713623	53.466679
815.666443	43.434601
815.619263	46.768101
815.572083	36.740376
815.524841	50.092350
815.477661	53.423134
815.430420	66.768036
815.383240	33.378578
815.335999	36.710453
815.288757	20.020620
815.241577	43.370941
815.194336	50.035236
815.147156	66.702774
815.099915	456.839569
815.052673	1523.661621
815.005432	2376.791504
814.958252	2693.035889
814.911011	8411.032227
814.863770	2958.708252
814.816528	2881.605225
814.769287	2194.992188
814.722046	869.195129
814.674866	6.659413
814.627563	46.608295
814.580322	79.886909
814.533081	79.873886
814.485840	29.947823
814.438599	49.904900
814.391296	63.202568
814.344055	26.607269
814.296753	73.158058
814.249573	43.222713
814.202209	53.188511
814.154968	53.179836
814.107727	53.171165
814.060486	39.871872
814.013184	33.221142
813.965881	39.858868
813.918640	56.457523
813.871338	76.371246
813.824097	36.519424
813.776794	43.152279
813.729431	49.782970
813.682190	46.456528
813.634949	63.037861
813.587585	23.220688
813.540283	49.750500
813.492981	89.536293
813.445740	36.471798
813.398376	72.931694
813.351074	56.347118
813.303833	46.395939
813.256531	62.955643
813.209167	19.877487
813.161865	49.685608
813.114502	36.430168
813.067261	23.179052
813.019958	43.039787
812.972595	43.032764
812.925232	46.335415
812.877930	43.018723
812.830566	52.937481
812.783325	16.540264
812.735962	36.382641
812.688599	46.297623
812.641296	52.902935
812.593933	49.588409
812.546631	76.023148
812.499207	59.486668
812.451904	49.564133
812.404541	36.341099
812.357239	42.941563
812.309875	49.539867
812.262512	42.927544
812.215149	56.126858
812.167786	62.719776
812.120361	42.906525
812.073059	26.399706
812.025635	23.095972
811.978333	36.287746
811.930969	36.281822
811.883545	9.893427
811.836182	26.378164
811.788818	39.560787
811.741394	39.554325
811.694031	29.660902
811.646667	52.721882
811.599304	42.829533
811.551880	55.998707
811.504456	55.989563
811.457092	62.566353
811.409668	29.631853
811.362305	39.502686
811.314941	65.827057
811.267517	52.653046
811.220154	26.322224
811.172729	42.766628
811.125305	69.073273
811.077881	52.618656
811.030457	59.186321
810.983032	59.176655
810.935608	42.731712
810.888184	29.578661
810.840820	39.431774
810.793396	13.141777
810.745911	49.273613
810.698486	13.137484
810.651062	68.960526
810.603638	19.699787
810.556213	55.806946
810.508728	26.257801
810.461365	65.633781
810.413879	45.936138
810.366394	26.244932
810.318970	29.520725
810.271545	65.590889
810.224060	32.790089
810.176636	55.734039
810.129211	26.223497
810.081726	55.715824
810.034302	52.429855
809.986816	45.868626
809.939331	58.964310
809.891907	81.881485
809.844421	39.296692
809.796936	36.016079
809.749451	19.641922
809.702026	62.189255
809.654480	75.269424
809.607056	32.720490
809.559570	62.158764
809.512085	22.896854
809.464600	52.327110
809.417114	49.048645
809.369568	29.424377
809.322144	94.796379
809.274597	62.097820
809.227173	45.748806
809.179626	49.008564
809.132141	19.600222
809.084656	58.791046
809.037109	35.921989
808.989563	35.916115
808.942078	48.968510
808.894592	52.224537
808.847107	45.688995
808.799561	35.892628
808.752014	42.411621
808.704529	3.261899
808.656982	35.875019
808.609497	39.129986
808.561951	22.822090
808.514404	26.078123
808.466858	22.814627
808.419373	22.810894
808.371826	58.646992
808.324280	32.576332
808.276733	52.113605
808.229187	42.335377
808.181641	26.048277
808.134094	39.066025
808.086548	22.784786
808.039001	39.053242
807.991455	35.792950
807.943909	45.547211
807.896301	42.286919
807.848755	61.793842
807.801208	35.769531
807.753662	29.261190
807.706055	26.005690
807.658508	22.751255
807.610901	48.744713
807.563416	71.480545
807.515747	32.485840
807.468201	42.224682
807.420654	42.217770
807.373108	42.210861
807.325439	25.971663
807.277832	48.688896
807.230347	25.963161
807.182739	19.469183
807.135132	3.244333
807.087463	25.950415
807.039917	25.946165
806.992310	58.369316
806.944702	9.726627
806.897156	51.866852
806.849548	42.134918
806.801880	45.368637
806.754272	38.881035
806.706665	48.593338
806.659058	32.390255
806.611450	64.769897
806.563843	32.379646
806.516235	16.187174
806.468567	67.974991
806.420959	38.836494
806.373291	29.122601
806.325684	61.470974
806.278076	16.173923
806.230469	45.279568
806.182800	25.869802
806.135132	25.865564
806.087524	29.093994
806.039856	51.714184
805.992249	12.926429
805.944580	29.079700
805.896973	51.688778
805.849243	67.830406
805.801636	41.983372
805.753967	29.060652
805.706299	48.426483
805.658691	41.962746
805.611023	71.002243
805.563354	35.495304
805.515625	32.263172
805.468018	35.483673
805.420349	51.604160
805.372681	19.348389
805.324951	25.793625
805.277283	45.131447
805.229614	48.347198
805.181885	41.894039
805.134216	38.665085
805.086548	51.544994
805.038879	28.989307
804.991211	54.748608
804.943481	38.639744
804.895752	45.072311
804.848083	9.656770
804.800354	38.620747
804.752686	57.921623
804.705017	19.304043
804.657288	48.252197
804.609619	57.893147
804.561890	38.589104
804.514160	48.228470
804.466431	51.435268
804.418701	64.283546
804.371033	51.418404
804.323303	32.131233
804.275513	32.125965
804.227844	25.696560
804.180115	48.173149
804.132385	70.642365
804.084595	12.841960
804.036865	41.729527
803.989197	41.722683
803.941467	22.462378
803.893738	44.917385
803.845947	41.702160
803.798218	73.768646
803.750488	38.481678
803.702759	44.887928
803.654968	54.497829
803.607178	38.462746
803.559448	35.251732
803.511719	48.062660
803.463928	28.832867
803.416199	38.437515
803.368408	35.228607
803.320679	54.435284
803.272888	38.418602
803.225159	35.211273
803.177307	48.007496
803.129578	22.399822
803.081787	51.191193
803.033997	79.973114
802.986206	51.174397
802.938416	63.957500
802.890686	22.381451
802.842896	44.755558
802.795105	70.318619
802.747253	35.153542
802.699524	31.952520
802.651672	54.310368
802.603882	35.136234
802.556091	31.936790
802.508301	31.931549
802.460510	51.082092
802.412720	47.881599
802.364929	44.682159
802.317078	41.483765
802.269226	19.143209
802.221436	66.990234
802.173645	57.410778
802.125793	47.834461
802.078003	35.072845
802.030151	31.879171
801.982361	57.373085
801.934509	31.868704
801.886719	47.795208
801.838867	19.114943
801.791016	57.335415
801.743164	54.141224
801.695312	31.842548
801.647522	15.918659
801.599609	44.564926
801.551819	31.826864
801.503967	35.003799
801.456055	44.542976
801.408203	44.535660
801.360352	31.805960
801.312500	22.260515
801.264709	38.154617
801.216797	22.253204
801.168945	9.535521
801.121094	44.491787
801.073181	47.661942
801.025391	57.184933
800.977478	34.940609
800.929565	34.934868
800.881714	38.104504
800.833862	34.923389
800.785950	41.266315
800.738037	31.738104
800.690247	19.039734
800.642334	34.900444
800.594421	34.894707
800.546570	22.202074
800.498596	38.054443
800.450745	19.024096
800.402832	22.191132
800.354980	44.374969
800.307068	22.183838
800.259155	41.191784
800.211243	15.840390
800.163330	38.010689
800.115417	6.334074
800.067505	56.997292
800.019653	53.821926
799.971680	28.489277
799.923767	34.814503
799.875854	47.466518
799.827942	31.639145
799.779968	56.941097
799.732117	37.954491
799.684143	18.974125
799.636230	31.618343
799.588257	34.774460
799.540344	50.572712
799.492371	44.243847
799.444458	12.639021
799.396545	34.751591
799.348572	15.793581
799.300598	31.581966
799.252686	59.995869
799.204712	41.043056
799.156738	34.723026
799.108826	41.029556
799.060852	25.244804
799.012878	9.465244
798.964966	66.245819
798.916992	22.078306
798.869019	47.302876
798.821045	37.836075
798.773071	22.067413
798.725098	25.215752
798.677124	34.665955
798.629150	18.905592
798.581116	53.557030
798.533203	25.199162
798.485168	44.091278
798.437256	28.339729
798.389221	44.076771
798.341248	34.626049
798.293274	50.356876
798.245300	47.201801
798.197266	37.755230
798.149292	53.477772
798.101257	25.161869
798.053223	53.460171
798.005310	0.000000
797.957275	78.592026
797.909241	25.145308
797.861206	56.567631
797.813232	37.705547
797.765198	53.407398
797.717224	59.680798
797.669189	12.562310
797.621155	65.941269
797.573120	34.534981
797.525146	25.112213
797.477112	62.770199
797.429016	25.103947
797.381042	6.274953
797.333008	47.054401
797.284912	50.183098
797.236877	28.223345
797.188843	56.437393
797.140808	31.348944
797.092773	43.881294
797.044800	40.740208
796.996704	37.600151
796.948608	53.258110
796.900635	59.513966
796.852539	31.317982
796.804504	46.969234
796.756409	25.046133
796.708374	46.953766
796.660339	18.778412
796.612244	50.067516
796.564209	62.574085
796.516113	28.153700
796.468018	21.893715
796.419983	37.525902
796.371887	53.152935
796.323792	43.765793
796.275757	31.256130
796.227600	50.001568
796.179504	40.619579
796.131470	53.109161
796.083374	37.482643
796.035278	28.107349
795.987183	56.205437
795.939087	43.708134
795.891052	12.485981
795.842896	43.693729
795.794800	49.927464
795.746643	40.559376
795.698547	71.747070
795.650452	40.546009
795.602356	37.420918
795.554260	56.122124
795.506165	43.643345
795.458069	21.818075
795.409912	37.396248
795.361816	37.390083
795.313660	34.268593
795.265564	31.148130
795.217407	49.828793
795.169312	18.682716
795.121216	37.359272
795.073059	31.127594
795.024902	46.683693
794.976746	37.340794
794.928589	49.779518
794.880493	21.774948
794.832336	55.983490
794.784180	27.987127
794.736023	12.436672
794.687866	37.303864
794.639709	31.081427
794.591553	31.076300
794.543396	43.499645
794.495239	55.918888
794.447144	55.909664
794.398926	55.900444
794.350830	71.416557
794.302612	34.150112
794.254456	34.144478
794.206238	21.724720
794.158081	18.618116
794.109924	27.922567
794.061707	58.937916
794.013550	37.217804
793.965393	24.807775
793.917236	34.105064
793.869019	52.699131
793.820862	27.894936
793.772583	27.890331
793.724426	34.082558
793.676270	46.468548
793.628052	61.947838
793.579895	34.065685
793.531677	34.060066
793.483459	34.054443
793.435242	55.716255
793.387085	34.043201
793.338806	30.943256
793.290649	12.375259
793.242371	30.933043
793.194214	40.206318
793.145996	55.661095
793.097778	43.284817
793.049561	30.912621
793.001343	9.272255
792.953064	46.353622
792.904846	24.717850
792.856628	18.535326
792.808411	30.887110
792.760193	40.146610
792.711914	21.613836
792.663696	24.697449
792.615417	40.126724
792.567200	33.947777
792.518982	43.199123
792.470703	21.595995
792.422485	30.846327
792.374207	58.598339
792.325928	37.003365
792.277710	49.329670
792.229492	73.982285
792.181152	40.067116
792.132935	15.407884
792.084656	52.378151
792.036377	24.644470
791.988098	27.720448
791.939819	27.715868
791.891602	52.343544
791.843323	33.863758
791.795044	18.468088
791.746765	27.697556
791.698486	36.923969
791.650208	15.382445
791.601929	36.911770
791.553650	12.301889
791.505371	30.749641
791.457031	33.819016
791.408752	43.035271
791.360474	27.660957
791.312195	15.364659
791.263916	33.796661
791.215576	49.150658
791.167297	12.285633
791.118958	27.638105
791.070679	33.774323
791.022339	39.908508
790.974060	49.110046
790.925720	33.757572
790.877441	18.410177
790.829102	46.017834
790.780823	30.673485
790.732422	39.868935
790.684143	49.061348
790.635803	33.724098
790.587524	36.783840
790.539185	64.361076
790.490845	18.385838
790.442505	45.956993
790.394104	33.696224
790.345825	42.879009
790.297424	30.622797
790.249146	52.050144
790.200745	55.102802
790.152405	39.789886
790.104065	15.301270
790.055725	21.418236
790.007385	48.947868
789.958984	33.646091
789.910706	27.524067
789.862305	42.808132
789.813904	39.743832
789.765564	33.623833
789.717224	39.730682
789.668823	27.501305
789.620483	21.386364
789.572083	27.492205
789.523682	39.704391
789.475342	30.536785
789.427002	36.638077
789.378601	9.158004
789.330200	33.573788
789.281799	21.361603
789.233459	30.511524
789.185059	27.455828
789.136658	24.401140
789.088257	36.595650
789.039856	27.442196
788.991455	30.486280
788.943115	36.577480
788.894714	42.666664
788.846252	33.518257
788.797913	24.372877
788.749451	45.691582
788.701050	21.319206
788.652649	39.586258
788.604248	57.847260
788.555847	12.176353
788.507385	6.087169
788.458984	30.430803
788.410522	15.212882
788.362122	42.589016
788.313660	12.166275
788.265259	30.410650
788.216858	33.446175
788.168396	30.400578
788.119995	51.672421
788.071533	39.507660
788.023071	27.346926
787.974670	33.418484
787.926208	39.488029
787.877747	3.037037
787.829346	21.255741
787.780884	54.648563
787.732422	72.852676
787.684021	33.385277
787.635559	60.690449
787.587097	54.612354
787.538635	33.368687
787.490173	15.165071
787.441711	0.000000
787.393250	48.512146
787.344788	36.378078
787.296326	57.589081
787.247803	18.183012
787.199341	51.509995
787.150879	27.265478
787.102417	45.434929
787.053894	24.227945
787.005432	33.307903
786.956909	9.082468
786.908508	30.269875
786.859985	27.238371
786.811523	54.467712
786.763000	24.203857
786.714478	39.324749
786.666016	18.146875
786.617493	12.095911
786.569031	30.234762
786.520508	27.206774
786.471985	21.157316
786.423523	18.131834
786.375000	42.300598
786.326477	42.293583
786.277954	18.122816
786.229431	36.239620
786.180908	45.292011
786.132446	18.113800
786.083923	9.055398
786.035339	33.197617
785.986816	36.209576
785.938354	15.084821
785.889771	36.197563
785.841248	15.079816
785.792725	30.154629
785.744202	21.104738
785.695679	27.130161
785.647095	24.111698
785.598572	21.094236
785.550049	27.116659
785.501465	45.186935
785.452942	36.143547
785.404358	18.068775
785.355835	24.087704
785.307251	27.094170
785.258728	21.069744
785.210205	48.151424
785.161621	-6.017929
785.113037	39.110046
785.064453	24.063726
785.015930	15.037333
784.967346	48.111477
784.918762	39.084087
784.870239	-3.005969
784.821594	51.092991
784.773071	51.084511
784.724487	33.049194
784.675903	24.031788
784.627319	57.066021
784.578735	33.032738
784.530151	12.009910
784.481567	21.013851
784.432983	18.008883
784.384399	9.002946
784.335754	24.003868
784.287170	32.999840
784.238586	62.989227
784.190002	29.989889
784.141357	62.968307
784.092773	41.971901
784.044128	20.982464
783.995605	26.972973
783.946960	47.943985
783.898376	41.944019
783.849670	38.941547
783.801086	14.975030
783.752502	35.934101
783.703857	26.946098
783.655212	38.915676
783.606628	26.937145
783.558044	44.887783
783.509338	29.920218
783.460693	38.889820
783.412109	35.892330
783.363464	41.867424
783.314819	23.920267
783.266174	41.853512
783.217529	62.769833
783.168884	47.816685
783.120300	23.904369
783.071594	50.788342
783.022949	62.728111
782.974304	32.852119
782.925659	8.958180
782.877014	8.956691
782.828369	17.910404
782.779663	32.830280
782.731018	20.888525
782.682373	32.819366
782.633667	0.000000
782.585022	56.669147
782.536377	14.910454
782.487671	41.742329
782.439026	44.716488
782.390320	41.728447
782.341614	35.761292
782.292969	20.857285
782.244263	38.728516
782.195557	41.700695
782.146912	35.737511
782.098206	5.955261
782.049500	44.657028
782.000854	41.672958
781.952087	35.713737
781.903442	56.537346
781.854736	47.602478
781.806030	44.619896
781.757324	41.638309
781.708618	44.605053
781.659912	32.704929
781.611206	41.617531
781.562500	35.666233
781.513794	-5.943383
781.465027	53.481548
781.416382	35.648434
781.367615	17.821249
781.318909	14.848570
781.270203	2.969220
781.221436	38.593433
781.172791	14.841158
781.124023	32.645111
781.075256	20.770704
781.026550	32.634247
780.977844	8.898767
780.929077	23.726097
780.880310	20.756878
780.831604	74.119370
780.782837	23.714249
780.734131	32.601665
780.685364	29.632942
780.636597	47.404812
780.587891	32.585384
780.539062	26.656328
780.490356	29.613211
780.441589	5.921656
780.392822	53.286030
780.344055	23.678736
780.295288	47.349583
780.246521	26.629705
780.197815	26.625271
780.148987	32.536575
780.100281	62.104939
780.051453	11.827541
780.002686	23.651142
779.953918	44.338505
779.905151	20.687857
779.856384	70.917976
779.807556	41.361927
779.758789	20.677519
779.710022	41.348145
779.661194	32.482414
779.612427	29.524549
779.563599	32.471592
779.514832	56.077950
779.466003	-5.901958
779.417236	32.455364
779.368408	50.149929
779.319580	26.545538
779.270813	29.490126
779.221985	35.382252
779.173218	17.688179
779.124390	32.422920
779.075562	20.629330
779.026733	29.465557
778.977966	11.784259
778.929138	32.401310
778.880310	26.505741
778.831482	41.224281
778.782593	20.608704
778.733826	38.266926
778.684937	44.146782
778.636108	41.196796
778.587341	26.479239
778.538513	29.416470
778.489624	38.235035
778.440796	58.813320
778.391968	17.641054
778.343079	-2.939685
778.294250	38.209534
778.245422	38.203163
778.196594	23.505716
778.147705	32.314968
778.098816	29.372345
778.049988	35.240936
778.001099	44.043819
777.952271	49.908001
777.903381	41.093853
777.854553	46.956566
777.805664	46.948730
777.756836	49.874706
777.707886	38.133118
777.659058	20.529791
777.610168	23.458704
777.561279	23.454788
777.512451	58.627186
777.463562	41.032181
777.414673	5.860762
777.365784	11.719568
777.316895	61.517464
777.268005	43.933712
777.219116	43.926380
777.170227	43.919048
777.121277	23.419582
777.072388	32.196548
777.023560	26.338234
776.974670	40.963745
776.925720	20.478455
776.876831	26.325045
776.827881	49.716785
776.778992	40.936398
776.730103	55.547264
776.681152	14.615260
776.632263	20.457947
776.583313	0.000000
776.534424	43.823818
776.485535	35.053200
776.436584	0.000000
776.387695	23.360996
776.338684	32.116005
776.289795	29.191492
776.240906	35.023937
776.191956	37.936264
776.143005	29.176867
776.094055	32.089191
776.045105	14.583559
775.996216	20.413572
775.947266	52.483273
775.898315	43.728756
775.849365	29.147633
775.800415	29.142763
775.751465	32.051682
775.702515	17.479815
775.653564	29.128157
775.604553	46.597263
775.555664	11.647368
775.506653	17.468134
775.457703	2.910869
775.408752	32.014206
775.359802	0.000000
775.310852	32.003506
775.261841	14.544617
775.212891	43.626556
775.163879	31.987461
775.114929	23.259720
775.065918	26.162809
775.016968	34.877914
774.968018	46.496113
774.918945	29.055210
774.869995	11.620141
774.820984	14.522748
774.772034	34.848766
774.723022	40.650097
774.674011	26.127834
774.625061	14.513037
774.576050	29.021219
774.527039	34.819637
774.478027	49.319572
774.429016	37.708660
774.380005	5.800362
774.330994	40.595741
774.281982	31.891317
774.232971	14.493629
774.183960	40.575371
774.134949	57.955120
774.085876	20.280899
774.036926	28.967865
773.987915	26.066717
773.938904	46.333076
773.889832	31.848661
773.840820	11.579393
773.791809	23.154911
773.742737	34.726555
773.693665	40.507534
773.644653	20.250378
773.595581	14.462135
773.546570	52.054974
773.497559	28.914589
773.448486	31.800724
773.399475	49.138348
773.350403	52.020130
773.301331	52.011421
773.252319	43.335594
773.203247	57.771122
773.154236	31.768797
773.105103	14.437945
773.056030	40.419479
773.007019	20.206356
772.957947	23.089111
772.908875	14.428278
772.859802	28.851725
772.810730	17.308136
772.761658	28.842062
772.712585	31.720955
772.663513	46.131844
772.614441	43.241360
772.565369	31.705021
772.516296	17.290751
772.467163	46.100945
772.418091	23.046612
772.368958	34.564125
772.319946	25.918753
772.270813	23.035032
772.221741	34.546761
772.172668	40.297798
772.123535	34.535183
772.074402	46.039196
772.025330	43.154514
771.976257	23.011885
771.927124	51.768066
771.877991	31.630739
771.828918	17.250238
771.779785	20.121906
771.730652	5.748153
771.681580	2.873595
771.632446	2.873113
771.583313	37.344208
771.534180	43.082249
771.485046	45.946697
771.435974	20.098310
771.386780	20.094940
771.337708	54.534267
771.288513	17.218460
771.239380	8.607787
771.190247	34.425373
771.141113	63.102604
771.091980	28.678192
771.042908	28.673384
770.993713	31.535433
770.944519	25.797392
770.895447	42.988441
770.846313	25.788740
770.797119	25.784414
770.747925	25.780090
770.698792	28.639740
770.649658	37.225418
770.600525	31.493147
770.551331	51.525597
770.502197	25.758476
770.453003	14.307864
770.403870	5.722186
770.354675	28.606127
770.305481	62.922924
770.256287	31.456182
770.207153	17.155039
770.157959	42.880402
770.108765	14.291069
770.059631	14.288671
770.010437	48.573326
769.961243	25.710976
769.912048	22.850365
769.862854	22.846531
769.813660	14.276685
769.764465	17.129147
769.715271	2.854378
769.666077	31.392893
769.616882	54.214985
769.567688	37.088238
769.518494	54.196785
769.469238	45.631737
769.420044	19.960533
769.370850	11.404104
769.321594	39.907661
769.272461	42.751030
769.223206	25.646311
769.173950	28.491116
769.124817	22.789066
769.075562	28.481548
769.026306	42.715149
768.977112	25.624784
768.927856	31.313921
768.878662	17.077452
768.829407	42.686459
768.780212	17.071714
768.730957	48.361736
768.681763	31.287630
768.632446	42.657784
768.583252	31.277119
768.533997	25.586071
768.484741	-2.842419
768.435486	19.893591
768.386230	17.048784
768.337036	36.932827
768.287781	19.883566
768.238525	14.200160
768.189209	25.555992
768.140015	73.816017
768.090759	11.354402
768.041443	22.704987
767.992188	68.103508
767.942932	76.603577
767.893677	39.713696
767.844421	39.707020
767.795105	36.864605
767.745850	22.682098
767.696594	48.191353
767.647278	34.011707
767.598022	17.002995
767.548767	36.833630
767.499451	42.493195
767.450134	25.491631
767.400879	19.823490
767.351562	19.820156
767.302307	16.985847
767.252991	25.474487
767.203735	45.280361
767.154419	42.443199
767.105103	8.487212
767.055786	19.800165
767.006470	22.624952
766.957214	50.897583
766.907837	39.580349
766.858582	28.266922
766.809265	59.350552
766.759949	22.605930
766.710632	14.126329
766.661316	33.897488
766.612000	50.837673
766.562683	39.533760
766.513367	22.586918
766.464050	22.583118
766.414673	36.691391
766.365356	22.575518
766.316040	14.107325
766.266724	56.419800
766.217346	31.025667
766.168030	19.740284
766.118713	28.195658
766.069336	33.829094
766.020020	25.367550
765.970703	47.908417
765.921326	42.265018
765.871948	36.623516
765.822632	30.983910
765.773254	30.978693
765.723938	30.973478
765.674561	39.414154
765.625244	39.407516
765.575867	33.772182
765.526489	30.952621
765.477112	59.081417
765.427795	42.193905
765.378418	39.374344
765.329041	47.803654
765.279663	22.492048
765.230286	28.110325
765.180908	19.673912
765.131531	28.100855
765.082153	44.953793
765.032715	61.801052
764.983337	30.895321
764.934021	19.657347
764.884644	14.038596
764.835205	14.036231
764.785828	11.227093
764.736450	8.418900
764.687073	25.252445
764.637634	36.469608
764.588257	19.634172
764.538818	33.652908
764.489441	50.470856
764.440063	50.462349
764.390625	14.014956
764.341187	16.815113
764.291809	28.020464
764.242432	47.626759
764.192932	16.806612
764.143555	25.205667
764.094116	25.201418
764.044739	22.397484
763.995300	39.188988
763.945862	39.182381
763.896484	36.377502
763.847046	39.169167
763.797607	19.581282
763.748169	22.374834
763.698730	22.371059
763.649292	36.346844
763.599854	25.158955
763.550415	13.974839
763.500977	13.972483
763.451538	25.146227
763.402100	36.316200
763.352661	50.275486
763.303162	39.096561
763.253723	44.674244
763.204285	41.875038
763.154846	33.494381
763.105408	19.535091
763.055908	33.483078
763.006470	41.846786
762.957031	44.629040
762.907532	25.099598
762.858032	47.402351
762.808594	33.454838
762.759094	36.236622
762.709656	25.082659
762.660156	36.224392
762.610718	41.790321
762.561218	25.069960
762.511780	36.206051
762.462280	36.199940
762.412781	55.682816
762.363342	38.971390
762.313843	19.482405
762.264343	36.175499
762.214783	50.080696
762.165344	36.163284
762.115845	66.751717
762.066345	41.712776
762.016846	30.584206
761.967346	13.899564
761.917847	27.794432
761.868286	25.010765
761.818848	44.456074
761.769287	11.112141
761.719788	47.218620
761.670288	47.210644
761.620789	47.202671
761.571228	8.328476
761.521729	30.532587
761.472229	22.201765
761.422668	16.648512
761.373169	49.937096
761.323608	41.607216
761.274109	19.413420
761.224609	22.183016
761.175049	47.130943
761.125488	22.175520
761.075989	30.486187
761.026489	44.336048
760.976929	44.328556
760.927307	44.321064
760.877808	22.156786
760.828308	35.998692
760.778687	24.917959
760.729187	44.291103
760.679626	30.444986
760.630066	58.112423
760.580566	11.067162
760.530945	22.130581
760.481384	38.721970
760.431824	33.184647
760.382263	16.589518
760.332703	35.937878
760.283142	60.807659
760.233521	35.925724
760.184021	11.052199
760.134460	38.676155
760.084839	46.955959
760.035278	38.663074
759.985657	2.761181
759.936096	38.649994
759.886536	35.883209
759.836975	24.838020
759.787354	16.555880
759.737732	38.623848
759.688232	35.858932
759.638611	44.126606
759.588989	38.604248
759.539368	38.597713
759.489807	55.130260
759.440186	22.048374
759.390564	49.600445
759.341003	30.306253
759.291443	13.773238
759.241760	27.541815
759.192200	19.276007
759.142578	11.012997
759.092957	13.763916
759.043335	52.294025
758.993713	30.270363
758.944092	13.756927
758.894470	30.260115
758.844849	38.506355
758.795227	63.249729
758.745667	27.495226
758.695984	16.494343
758.646362	27.485914
758.596741	16.488756
758.547058	38.467251
758.497437	24.724758
758.447815	30.214031
758.398193	41.193974
758.348511	32.949596
758.298889	19.217342
758.249268	8.234609
758.199646	38.421665
758.149963	24.695459
758.100281	10.973900
758.050659	13.715051
758.000977	19.197819
757.951355	27.420809
757.901672	21.932930
757.851990	41.117275
757.802368	32.888248
757.752686	54.804455
757.703003	16.438551
757.653320	21.914352
757.603699	35.604790
757.554016	43.813850
757.504333	21.903214
757.454651	24.636938
757.404968	32.843681
757.355286	13.682548
757.305603	41.040684
757.255920	21.884655
757.206238	16.410709
757.156616	19.142580
757.106873	21.873526
757.057190	30.070999
757.007446	35.532429
756.957764	32.793602
756.908081	13.661684
756.858398	40.978100
756.808716	57.359612
756.758972	19.116629
756.709290	30.035320
756.659607	24.570187
756.609924	24.566019
756.560120	16.374567
756.510437	54.572632
756.460693	46.378868
756.411072	43.643295
756.361328	35.454163
756.311584	8.180342
756.261902	27.263180
756.212097	57.242962
756.162415	46.331676
756.112671	10.899721
756.062927	35.418083
756.013184	32.688068
755.963501	21.788347
755.913757	40.846218
755.864014	24.503571
755.814270	24.499413
755.764587	19.051865
755.714844	48.982189
755.665100	19.045397
755.615356	32.643707
755.565552	27.198473
755.515808	16.316313
755.466064	62.535248
755.416321	65.243095
755.366577	51.642014
755.316833	21.740313
755.267029	38.039089
755.217285	21.732931
755.167542	24.445395
755.117737	27.156937
755.067993	54.304649
755.018188	40.721569
754.968445	32.571724
754.918701	29.852341
754.868896	29.847271
754.819092	18.990492
754.769348	35.262062
754.719543	59.664124
754.669739	35.250084
754.619995	21.688673
754.570190	32.527485
754.520386	21.681305
754.470642	24.387323
754.420837	21.673937
754.371033	40.631725
754.321228	18.958250
754.271484	56.865082
754.221619	18.951807
754.171875	24.362467
754.122070	37.890728
754.072205	43.296329
754.022400	24.350046
753.972595	24.345907
753.922852	21.637127
753.872986	40.562717
753.823181	5.407443
753.773376	37.845665
753.723572	62.164448
753.673706	29.725767
753.623901	48.633896
753.574097	13.507118
753.524292	10.803857
753.474426	27.005049
753.424561	24.300411
753.374756	40.493797
753.324951	29.690399
753.275085	43.178692
753.225281	29.680300
753.175415	5.395500
753.125610	29.670204
753.075745	32.361988
753.025879	35.052856
752.976074	35.046894
752.926208	43.127300
752.876343	37.729965
752.826477	53.890781
752.776672	16.164482
752.726807	37.710709
752.676941	43.090618
752.627075	61.932224
752.577209	43.075954
752.527344	29.609678
752.477539	48.443954
752.427673	24.217854
752.377808	2.690415
752.327881	29.589523
752.278015	48.410976
752.228149	16.134245
752.178284	26.885830
752.128357	29.569378
752.078491	48.378017
752.028625	53.744202
751.978760	45.674789
751.928833	24.176655
751.878967	29.544212
751.829102	32.224560
751.779175	48.328609
751.729309	18.791258
751.679382	48.312149
751.629456	24.151960
751.579590	21.464752
751.529663	53.652740
751.479797	24.139620
751.429871	24.135508
751.379944	37.537727
751.330078	37.531330
751.280212	32.164230
751.230225	24.119064
751.180298	72.344864
751.130371	42.863724
751.080505	26.785263
751.030579	34.814907
750.980652	24.098520
750.930725	16.062943
750.880859	37.473812
750.830872	40.143669
750.780945	24.082096
750.731018	32.103989
750.681091	16.049257
750.631165	24.069782
750.581177	16.043785
750.531311	50.796661
750.481384	37.422737
750.431396	-2.672597
750.381409	48.098541
750.331482	29.388540
750.281616	29.383530
750.231628	26.707745
750.181641	21.362553
750.131714	16.019182
750.081787	26.694082
750.031799	53.379059
