#Wave		#Intensity
899.963257	45.171726
899.920715	40.654552
899.878235	13.549342
899.835815	45.157227
899.793274	31.604986
899.750793	49.657009
899.708252	36.108391
899.665771	40.615421
899.623230	58.657307
899.580688	58.647892
899.538208	67.659790
899.495667	31.569500
899.453186	45.092049
899.410645	45.084812
899.368103	31.554306
899.325623	85.633659
899.283020	36.050491
899.240540	45.055882
899.197998	31.534058
899.155396	45.041424
899.112854	54.041039
899.070312	49.529671
899.027771	31.513823
898.985229	40.511272
898.942688	63.007423
898.900085	40.498272
898.857544	35.992687
898.814941	53.980373
898.772400	44.976425
898.729797	35.975368
898.687256	31.473396
898.644714	44.954781
898.602112	44.947571
898.559570	40.446323
898.516907	35.946518
898.474304	44.925938
898.431763	35.934986
898.389221	44.911526
898.346558	44.904320
898.304016	35.917694
898.261353	26.933949
898.218750	53.859257
898.176147	40.387962
898.133606	31.407820
898.090942	76.263901
898.048340	49.339314
898.005676	58.300743
897.963074	35.871624
897.920471	35.865871
897.877808	44.825146
897.835205	53.781548
897.792542	40.329693
897.749939	53.764297
897.707275	35.837116
897.664673	40.310287
897.622009	22.391012
897.579346	58.207294
897.536743	53.721191
897.494080	44.760479
897.451477	67.129951
897.408752	40.271511
897.366089	49.212841
897.323425	44.731770
897.280823	58.141975
897.238098	35.773937
897.195435	49.181274
897.152710	58.114002
897.110046	31.287136
897.067383	35.750992
897.024719	40.213417
896.982056	49.141850
896.939331	53.600693
896.896667	44.660080
896.854004	44.652920
896.811279	49.110332
896.768555	62.494038
896.725830	53.557728
896.683167	44.624283
896.640442	31.231987
896.597778	44.609970
896.555054	53.523380
896.512268	49.055229
896.469604	40.129662
896.426880	57.955772
896.384094	40.116791
896.341431	31.196947
896.298706	57.927895
896.255920	31.186941
896.213257	53.454758
896.170532	66.807732
896.127747	31.171942
896.085022	53.429047
896.042236	44.517067
895.999512	31.156950
895.956787	48.953072
895.913940	48.945221
895.871216	48.937374
895.828430	40.033249
895.785767	53.369106
895.742981	57.807262
895.700195	22.229998
895.657410	62.234013
895.614624	40.001167
895.571838	35.550892
895.529114	48.874638
895.486267	35.539494
895.443481	48.858967
895.400757	44.410122
895.357910	39.962704
895.315125	39.956295
895.272339	31.072136
895.229553	26.628990
895.186768	44.374535
895.143921	48.804161
895.101135	57.668400
895.058350	62.094475
895.015442	31.042259
894.972656	62.074566
894.929871	39.898682
894.887024	26.594856
894.844238	62.044720
894.801392	39.879498
894.758545	22.151724
894.715698	39.866711
894.672913	70.862793
894.630066	44.282146
894.587219	61.985065
894.544373	48.694744
894.501526	79.669540
894.458679	26.552256
894.415894	35.397331
894.372986	35.391659
894.330078	35.385986
894.287292	30.957775
894.244446	35.374641
894.201538	39.790092
894.158691	22.102064
894.115845	48.616749
894.072876	70.703934
894.030029	53.019451
893.987183	70.681274
893.944275	57.419331
893.901428	61.826290
893.858521	39.739101
893.815552	35.317986
893.772766	83.866768
893.729858	52.959995
893.686951	52.951508
893.644043	44.119183
893.601135	57.345749
893.558167	22.052521
893.515320	48.507771
893.472412	48.499996
893.429504	70.534149
893.386536	57.299809
893.343689	22.034857
893.300720	35.250118
893.257812	66.083382
893.214844	22.024263
893.171936	57.253910
893.129028	48.437851
893.086060	48.430088
893.043091	74.834503
893.000183	44.013245
892.957275	44.006191
892.914307	48.399052
892.871338	52.790504
892.828430	39.586533
892.785461	43.977989
892.742493	30.779659
892.699524	43.963894
892.656555	39.561165
892.613525	48.344788
892.570618	35.154209
892.527649	39.542149
892.484619	70.285889
892.441711	70.274628
892.398682	52.697525
892.355652	65.861351
892.312744	43.900532
892.269775	35.114796
892.226746	30.720524
892.183777	39.491489
892.140686	52.646881
892.097717	48.251907
892.054749	43.858341
892.011719	35.081051
891.968750	35.075432
891.925720	74.523346
891.882751	48.213264
891.839722	21.911608
891.796692	61.342674
891.753662	65.713760
891.710632	35.041725
891.667603	30.656595
891.624573	43.788120
891.581482	17.512442
891.538513	52.528908
891.495422	39.390369
891.452454	39.384060
891.409363	30.627138
891.366272	48.120647
891.323242	69.982452
891.280273	61.224838
891.237122	56.842525
891.194092	56.833420
891.151062	69.937622
891.107971	52.444809
891.064880	34.957607
891.021851	83.011009
890.978760	39.314705
890.935730	52.411209
890.892639	43.669010
890.849548	52.394421
890.806458	65.482529
890.763367	52.377632
890.720276	30.548725
890.677185	69.814468
890.634155	39.264347
890.591003	69.792107
890.547913	26.167847
890.504761	61.048527
890.461731	52.318924
890.418579	56.669758
890.375488	39.226624
890.332336	34.862526
890.289246	30.499823
890.246155	34.851357
890.203003	26.134329
890.159912	43.550240
890.116760	52.251915
890.073669	47.889915
890.030457	39.176384
889.987366	69.635742
889.944214	47.866905
889.901062	82.665955
889.857910	47.851574
889.814758	43.494461
889.771606	52.184994
889.728516	60.872742
889.685364	43.473564
889.642212	52.159920
889.598999	26.075783
889.555908	30.416874
889.512695	60.824005
889.469543	39.094883
889.426392	56.461342
889.383240	52.109814
889.340027	60.785046
889.296875	43.410934
889.253723	47.744377
889.210449	56.416138
889.167297	34.712063
889.124146	52.059753
889.080933	69.401886
889.037781	47.706154
888.994507	43.362286
888.951294	52.026409
888.908081	78.027115
888.864868	30.339018
888.821716	30.334158
888.778503	60.658600
888.735291	25.992380
888.692078	43.313694
888.648804	47.637432
888.605652	56.289768
888.562378	56.280754
888.519226	34.628761
888.475952	69.246429
888.432739	38.944881
888.389465	47.591675
888.346252	73.538994
888.303040	64.876953
888.259766	43.244373
888.216492	56.208683
888.173279	82.138000
888.130066	64.835403
888.086731	60.503349
888.043457	69.135612
888.000244	51.843407
887.956970	43.195919
887.913696	38.870102
887.870483	69.091339
887.827209	34.540134
887.783936	64.752380
887.740601	73.374283
887.697327	69.047089
887.654053	43.147518
887.610779	34.512489
887.567505	47.447071
887.524231	47.439472
887.480957	43.119888
887.437622	34.490387
887.394348	30.174255
887.351074	47.409092
887.307739	38.783047
887.264404	64.628059
887.221130	34.462780
887.177734	51.685890
887.134460	60.290550
887.091125	43.057781
887.047852	30.135620
887.004517	51.652790
886.961182	47.340809
886.917908	73.151352
886.874573	64.534973
886.831238	38.714787
886.787842	86.019081
886.744568	25.801592
886.701172	47.295345
886.657837	47.287769
886.614502	55.876598
886.571167	68.760185
886.527832	85.936470
886.484436	47.257488
886.441101	73.022606
886.397766	42.947598
886.354370	21.470360
886.310974	51.520615
886.267639	68.683151
886.224304	34.336079
886.180908	17.165289
886.137451	55.778259
886.094177	51.479378
886.050781	38.603352
886.007385	81.482918
885.963989	55.742542
885.920593	72.882423
885.877197	60.011208
885.833862	12.857486
885.790405	59.991993
885.747009	72.835754
885.703613	42.837700
885.660217	42.830841
885.616821	42.823986
885.573364	68.507408
885.529968	64.215408
885.486511	72.765808
885.443115	47.076221
885.399719	55.626625
885.356323	47.061150
885.312805	64.164017
885.269409	68.430664
885.225952	64.143471
885.182556	76.959846
885.139099	42.748623
885.095642	76.935204
885.052185	59.828911
885.008728	42.728092
884.965332	51.265503
884.921875	64.071617
884.878418	46.978329
884.835022	51.240883
884.791504	42.693897
884.748108	68.299301
884.704590	46.948254
884.661072	72.544769
884.617615	85.333130
884.574219	55.457653
884.530762	59.714066
884.487244	46.910683
884.443726	46.903172
884.400269	51.158905
884.356812	42.625595
884.313232	72.451912
884.269836	42.611946
884.226257	59.647175
884.182739	42.598305
884.139343	38.332336
884.095825	68.135468
884.052307	72.382339
884.008789	51.085236
883.965332	38.307793
883.921753	55.324619
883.878235	55.315765
883.834717	55.306908
883.791199	34.029572
883.747681	59.542217
883.704163	42.523346
883.660645	63.774807
883.617126	46.760704
883.573547	80.755562
883.530029	63.744183
883.486511	38.240387
883.442932	55.227272
883.399414	63.713573
883.355896	50.962696
883.312317	59.446964
883.268738	80.665108
883.225220	50.938225
883.181641	38.197552
883.138062	42.434933
883.094482	76.370651
883.050964	50.905617
883.007385	25.448732
882.963745	63.611649
882.920227	55.121269
882.876648	63.591282
882.833069	76.297325
882.789429	25.428370
882.745911	38.136448
882.702332	59.313866
882.658691	50.832317
882.615112	55.059528
882.571533	59.285385
882.527954	42.339924
882.484314	42.333145
882.440735	76.187462
882.397156	67.711349
882.353516	55.006664
882.309875	29.614231
882.266296	38.069347
882.222656	54.980251
882.179016	50.742878
882.135437	46.506859
882.091797	59.181072
882.048218	21.132713
882.004517	63.387993
881.960876	38.026707
881.917236	59.143185
881.873657	33.790695
881.829956	50.677929
881.786316	54.892303
881.742737	71.770752
881.699036	50.653595
881.655396	50.645489
881.611694	50.637379
881.568054	63.286594
881.524414	63.276463
881.480774	50.613068
881.437073	50.604965
881.393372	37.947647
881.349731	67.451683
881.306091	54.795719
881.262390	59.001331
881.218689	54.778179
881.174988	58.982441
881.131348	58.973000
881.087646	75.810287
881.044006	101.064209
881.000244	58.944683
880.956604	63.144909
880.912903	54.716827
880.869141	37.874817
880.825500	54.699310
880.781799	50.483589
880.738098	42.062923
880.694397	50.467426
880.650574	63.074188
880.606934	50.451271
880.563232	50.443195
880.519470	58.840973
880.475769	79.842827
880.432007	42.015812
880.388306	46.209995
880.344604	54.603073
880.300842	58.793896
880.257080	54.585590
880.213379	67.171516
880.169617	46.173023
880.125854	54.559383
880.082092	50.354446
880.038391	71.324043
879.994629	54.533188
879.950867	67.107025
879.907104	46.128693
879.863342	50.314156
879.819580	37.729576
879.775818	62.872562
879.732056	46.099163
879.688293	71.232758
879.644531	62.842373
879.600708	50.265850
879.556946	67.010406
879.513123	58.624722
879.469299	37.681286
879.425598	50.233673
879.381775	37.669224
879.338013	54.402393
879.294189	33.473038
879.250427	41.834599
879.206604	79.473015
879.162781	66.913933
879.119019	33.451611
879.075134	50.169380
879.031372	58.521576
878.987549	54.332764
878.943726	54.324066
878.899963	62.671585
878.856140	58.484116
878.812317	54.297985
878.768433	41.760994
878.724609	62.631466
878.680786	33.398102
878.636963	33.392754
878.593079	41.734261
878.549255	75.109650
878.505432	33.376720
878.461609	50.057068
878.417725	50.049057
878.373840	29.190609
878.330017	50.033035
878.286194	45.856274
878.242310	37.512764
878.198425	41.674175
878.154602	50.001007
878.110718	41.660835
878.066895	33.323334
878.022949	49.976997
877.979065	62.461246
877.935181	54.124416
877.891296	45.790253
877.847473	62.431255
877.803589	41.614174
877.759705	41.607513
877.715759	41.600853
877.671936	62.391293
877.627991	45.746288
877.584106	54.055141
877.540222	49.889069
877.496277	45.724327
877.452393	62.341373
877.408447	49.865112
877.364563	54.011894
877.320679	41.540958
877.276672	70.608330
877.232788	37.374893
877.188904	62.281521
877.144958	45.665802
877.101013	53.960037
877.057068	58.101509
877.013184	33.195545
876.969238	41.487793
876.925354	49.777382
876.881348	37.327061
876.837402	66.348595
876.793457	53.899601
876.749512	29.018217
876.705566	41.447960
876.661560	53.873722
876.617676	58.008568
876.573730	66.284897
876.529724	53.847855
876.485779	33.131836
876.441833	41.408165
876.397888	78.662926
876.353821	57.952873
876.309875	45.527111
876.265869	41.381660
876.221924	53.787544
876.177917	49.642094
876.133972	74.451218
876.089966	45.490685
876.046021	62.022823
876.002014	78.549667
875.958008	53.735905
875.913940	37.195824
875.869995	37.189869
875.825989	61.973194
875.781982	24.785309
875.737976	33.041790
875.693970	49.554749
875.649902	66.062424
875.605896	66.051849
875.561890	28.893057
875.517883	49.523026
875.473877	49.515099
875.429810	37.130379
875.385864	24.749624
875.341736	32.994217
875.297791	70.101486
875.253723	61.844349
875.209656	49.467560
875.165588	41.216366
875.121521	53.572697
875.077454	78.286026
875.033447	37.076916
874.989380	41.189980
874.945374	65.893417
874.901306	49.412151
874.857239	53.521263
874.813110	53.512695
874.769104	49.388424
874.725037	53.495564
874.680969	53.487000
874.636841	61.705887
874.592773	45.243740
874.548706	65.798538
874.504639	53.452755
874.460571	61.666382
874.416443	78.098244
874.372437	82.195518
874.328308	53.418533
874.284180	53.409985
874.240051	28.754618
874.196045	28.750013
874.151917	36.958385
874.107788	49.269958
874.063660	45.156898
874.019531	61.567730
873.975464	65.661736
873.931335	69.754425
873.887207	57.435623
873.843079	73.833977
873.798950	65.619698
873.754822	45.106319
873.710754	32.799343
873.666565	24.595570
873.622437	81.972107
873.578308	61.469234
873.534180	57.362103
873.489990	73.739464
873.445862	61.439716
873.401672	53.239231
873.357605	77.798729
873.313416	57.316200
873.269287	32.746872
873.225098	65.483253
873.180969	45.012531
873.136780	49.096718
873.092590	69.542549
873.048462	69.531410
873.004272	49.073139
872.960083	44.976509
872.915894	40.881187
872.871765	40.874645
872.827576	57.215340
872.783386	61.292336
872.739197	65.368027
872.695007	65.357559
872.650818	44.926128
872.606567	32.668316
872.562439	57.160400
872.518188	69.397942
872.474060	77.549988
872.429810	57.132950
872.385559	48.963257
872.341370	44.875801
872.297241	48.947582
872.252930	32.626495
872.208740	48.931908
872.164551	40.770061
872.120361	65.221657
872.076050	73.362610
872.031860	77.425911
871.987610	77.413521
871.943359	52.958664
871.899109	44.804001
871.854919	48.869267
871.810608	44.789654
871.766418	65.138161
871.722168	52.916279
871.677917	61.047470
871.633667	40.691795
871.589417	32.548225
871.545166	36.610889
871.500916	85.411728
871.456665	73.198334
871.412354	81.318459
871.368103	60.979080
871.323853	97.550903
871.279602	73.151459
871.235229	56.886471
871.190979	48.752026
871.146790	64.992294
871.102417	69.043251
871.058105	52.789330
871.013916	48.720806
870.969604	69.010094
870.925293	73.057808
870.880981	68.987991
870.836731	56.804543
870.792419	44.624996
870.748047	60.842522
870.703796	28.388630
870.659485	40.548691
870.615173	64.867516
870.570862	48.642849
870.526550	64.846748
870.482178	60.784088
870.437866	52.671108
870.393555	44.560726
870.349243	64.805222
870.304932	68.844521
870.260559	32.392235
870.216248	56.677330
870.171875	56.668255
870.127563	24.282505
870.083252	60.696545
870.038879	44.503670
869.994507	44.496544
869.950195	44.489418
869.905823	24.263069
869.861511	52.561565
869.817078	56.595699
869.772766	68.712341
869.728394	52.536316
869.684021	84.852768
869.639648	28.279726
869.595276	60.589710
869.550903	68.657341
869.506531	44.418224
869.462158	84.784843
869.417786	16.146908
869.373413	68.613373
869.328979	32.283474
869.284607	44.382668
869.240234	60.512127
869.195862	44.368454
869.151428	52.427048
869.107056	44.354244
869.062622	44.347141
869.018250	48.370949
868.973877	44.332935
868.929443	52.385078
868.885010	48.347713
868.840637	60.424961
868.796143	56.387600
868.751770	52.351528
868.707336	76.501518
868.662903	44.283260
868.618469	56.351486
868.574036	76.464767
868.529663	64.381073
868.485229	60.347584
868.440735	68.382973
868.396301	56.306374
868.351868	32.169918
868.307434	52.267742
868.263000	60.299274
868.218506	68.328232
868.174072	56.261295
868.129578	56.252285
868.085144	68.295403
868.040710	56.234264
867.996277	40.160900
867.951721	52.200806
867.907288	68.251663
867.862793	44.155766
867.818359	40.135174
867.773865	48.154495
867.729370	56.171246
867.684937	52.150661
867.640442	52.142307
867.595947	44.113346
867.551514	64.154587
867.506958	48.108234
867.462463	64.134041
867.417969	52.100559
867.373535	60.106400
867.328979	40.064514
867.284485	60.087147
867.239929	56.072353
867.195435	52.058846
867.150940	72.069931
867.106445	60.048656
867.061890	44.028625
867.017395	48.023537
866.972839	84.027725
866.928345	48.008152
866.883789	48.000462
866.839294	51.992168
866.794739	43.986328
866.750183	27.986814
866.705688	47.969711
866.661133	71.943039
866.616638	47.954342
866.572021	59.933327
866.527527	63.918640
866.482910	59.914124
866.438416	35.942715
866.393860	67.880920
866.349304	47.908268
866.304749	43.908878
866.260193	47.892918
866.215637	63.846996
866.171021	47.877575
866.126465	55.848225
866.081909	63.816315
866.037292	71.781853
865.992676	63.795868
865.948181	63.785648
865.903564	47.831573
865.859009	55.794559
865.814392	83.678429
865.769836	59.760731
865.725159	47.800926
865.680603	75.672676
865.635986	35.839207
865.591431	39.814964
865.546753	47.770302
865.502197	51.742867
865.457581	51.734577
865.412964	47.747341
865.368347	51.717999
865.323792	31.821362
865.279114	75.563629
865.234497	55.669540
865.189880	59.636379
865.145264	75.527313
865.100647	31.795877
865.055969	59.607719
865.011353	39.732113
864.966675	39.725746
864.922058	67.522949
864.877441	47.655621
864.832825	75.442642
864.788147	51.610378
864.743469	67.479675
864.698853	59.531353
864.654175	63.489933
864.609497	67.447243
864.564880	59.502739
864.520203	59.493206
864.475586	67.414825
864.430908	59.474140
864.386169	63.428917
864.341492	79.273438
864.296875	39.630367
864.252136	63.398430
864.207520	43.579437
864.162781	71.300377
864.118103	99.012428
864.073425	63.357800
864.028687	51.469963
863.984009	47.503120
863.939331	47.495510
863.894653	55.402550
863.849976	23.740145
863.805237	59.340847
863.760559	39.554226
863.715820	59.321831
863.671143	43.495705
863.626404	51.395775
863.581665	67.199089
863.536987	59.283813
863.492249	59.274311
863.447571	67.166786
863.402832	51.354603
863.358093	51.346375
863.313354	67.134499
863.268616	63.175282
863.223877	51.321690
863.179138	74.996605
863.134338	55.251797
863.089600	63.134792
863.044861	59.179379
863.000183	63.114555
862.955444	63.104439
862.910645	47.320744
862.865906	67.026978
862.821106	59.131969
862.776367	59.122490
862.731628	27.586073
862.686890	55.163303
862.642090	82.731697
862.597290	59.084595
862.552490	78.766830
862.507751	31.501682
862.463013	55.119110
862.418213	47.237377
862.373352	70.844711
862.328613	39.351864
862.283813	82.625664
862.239014	66.876724
862.194275	70.799294
862.149475	58.989956
862.104675	74.708633
862.059814	70.765251
862.015076	62.892365
861.970215	66.812424
861.925415	74.660736
861.880615	58.933239
861.835754	39.282528
861.790955	54.986725
861.746155	58.904903
861.701294	70.674553
861.656494	58.886017
861.611694	62.801682
861.566833	78.489517
861.522034	54.933853
861.477173	58.848267
861.432373	47.071064
861.387512	43.141560
861.342651	62.741299
861.297852	78.414047
861.252991	66.641258
861.208130	70.550018
861.163269	54.863438
861.118408	70.527397
861.073608	70.516090
861.028687	62.670918
860.983826	54.828262
860.938965	54.819473
860.894165	70.470879
860.849243	58.716316
860.804382	62.620693
860.759460	54.784321
860.714600	70.425690
860.669739	105.621597
860.624817	78.225677
860.580017	62.570507
860.535095	43.010326
860.490173	70.369247
860.445251	62.540413
860.400391	70.346687
860.355469	82.057976
860.310608	78.137917
860.265686	54.687771
860.220764	50.773361
860.175903	66.385284
860.130920	58.565861
860.086060	62.460232
860.041138	74.159630
859.996216	81.952766
859.951294	62.430187
859.906372	66.321442
859.861450	66.310806
859.816467	74.100189
859.771606	54.591385
859.726685	42.886353
859.681702	54.573875
859.636780	42.872597
859.591858	70.143906
859.546936	54.547623
859.501953	70.121414
859.457031	46.740112
859.412109	46.732616
859.367065	66.193916
859.322144	70.076439
859.277161	62.280178
859.232239	85.621513
859.187256	73.933990
859.142273	46.687664
859.097290	66.130249
859.052429	66.119644
859.007385	97.219170
858.962402	58.322147
858.917419	77.750389
858.872498	62.190334
858.827454	77.725449
858.782532	97.141228
858.737488	54.390362
858.692505	46.612835
858.647522	77.675598
858.602478	66.013664
858.557495	31.060272
858.512512	58.228668
858.467529	42.694172
858.422485	46.567989
858.377502	62.080696
858.332458	54.311893
858.287537	69.818375
858.242493	62.050823
858.197449	62.040871
858.152405	69.784782
858.107422	65.897278
858.062378	69.762398
858.017334	65.876137
857.972290	50.367786
857.927307	92.971771
857.882263	54.224831
857.837219	58.088715
857.792236	73.567230
857.747131	89.040787
857.702087	69.672913
857.657043	65.791641
857.611938	100.606361
857.566956	65.770531
857.521912	50.287041
857.476807	61.881813
857.431763	65.738876
857.386719	73.461075
857.341614	69.583542
857.296570	57.976978
857.251465	81.154747
857.206421	61.822266
857.161316	73.402161
857.116272	73.390388
857.071167	73.378609
857.026123	77.228249
856.981018	54.051102
856.935974	61.762775
856.890869	65.612419
856.845764	81.037628
856.800659	73.307991
856.755554	42.434662
856.710510	84.855705
856.665344	73.272713
856.620239	77.116791
856.575134	69.393974
856.530029	65.528236
856.484924	69.371704
856.439758	73.213936
856.394653	69.349442
856.349548	57.781929
856.304443	73.178696
856.259338	80.868736
856.214233	69.304939
856.169006	73.143471
856.123962	88.527885
856.078796	65.423157
856.033630	73.108261
855.988525	88.485275
855.943420	92.317642
855.898254	57.689266
855.853027	80.752007
855.807922	76.894333
855.762756	99.946587
855.717590	69.182686
855.672485	92.228775
855.627258	46.106987
855.582153	84.515907
855.536987	69.138283
855.491821	76.807983
855.446655	61.436523
855.401489	69.104996
855.356262	57.578251
855.311096	88.272484
855.265930	38.373180
855.220764	57.550529
855.175537	107.410416
855.130371	76.709412
855.085205	80.531952
855.039978	53.679348
854.994812	84.339722
854.949646	80.493172
854.904358	95.809822
854.859192	80.467331
854.814026	76.623253
854.768799	72.780403
854.723511	80.428589
854.678406	72.757042
854.633179	72.745361
854.587952	88.046036
854.542725	76.549477
854.497498	84.190910
854.452209	68.872414
854.407043	84.163879
854.361755	91.800400
854.316589	76.488052
854.271301	80.299561
854.226074	99.402542
854.180908	87.918900
854.135681	103.192566
854.090332	91.711998
854.045105	72.593674
853.999878	61.121700
853.954651	103.126312
853.909363	68.739838
853.864136	87.820129
853.818848	68.717766
853.773621	61.072647
853.728333	76.328552
853.683044	68.684662
853.637817	64.858437
853.592529	68.662613
853.547241	64.837608
853.501953	76.267288
853.456726	64.816788
853.411438	83.867073
853.366089	68.607498
853.320801	68.596481
853.275513	80.016373
853.230225	95.242294
853.184937	87.608833
853.139648	91.403236
853.094421	72.349274
853.049072	68.530411
853.003784	68.519402
852.958435	87.538513
852.913147	72.302811
852.867859	53.267197
852.822571	76.083771
852.777222	95.089439
852.731873	91.271202
852.686584	49.430630
852.641296	76.034904
852.595886	57.017021
852.550598	87.412056
852.505249	83.598099
852.459900	72.186768
852.414551	60.779091
852.369263	72.163574
852.323914	106.329239
852.278564	83.530983
852.233215	91.110077
852.187927	75.912865
852.142517	75.900673
852.097168	60.710781
852.051819	56.907215
852.006470	79.657303
851.961121	83.437103
851.915771	60.671783
851.870361	64.453415
851.825012	72.024597
851.779602	87.173660
851.734253	94.738754
851.688843	71.989891
851.643555	106.073318
851.598145	71.966759
851.552734	94.677895
851.507324	83.303162
851.461975	106.005165
851.416565	87.061684
851.371216	102.186424
851.325806	94.601860
851.280396	98.370125
851.235046	79.440025
851.189636	79.427261
851.144165	75.632858
851.098755	68.058640
851.053345	79.388985
851.007935	83.156052
850.962524	41.571342
850.917175	94.465141
850.871765	94.449966
850.826294	113.321747
850.780945	79.312477
850.735474	94.404442
850.690002	98.164841
850.644592	86.824173
850.599182	75.487152
850.553711	128.307526
850.508301	83.009178
850.462891	86.768379
850.417419	86.754433
850.372009	116.911095
850.326538	67.872955
850.281067	79.172386
850.235657	101.776711
850.190186	79.146942
850.144714	94.207405
850.099182	90.424576
850.053772	128.080887
850.008301	67.796631
849.962830	94.146858
849.917358	97.896996
849.871887	109.175247
849.826355	86.573349
849.780945	79.032524
849.735474	90.308372
849.690002	52.671413
849.644470	82.756058
849.598999	94.025864
849.553528	82.729462
849.507996	82.716164
849.462524	93.980530
849.417053	90.206802
849.371521	90.192307
849.325989	78.905579
849.280518	127.731354
849.234985	82.636414
849.189514	105.156708
849.143982	86.364838
849.098450	82.596565
849.052979	56.306786
849.007446	105.089104
848.961914	82.556732
848.916443	86.295441
848.870911	90.032936
848.825378	105.021538
848.779846	90.003990
848.734253	104.987770
848.688721	93.724007
848.643250	101.205658
848.597656	89.946121
848.552124	104.920265
848.506592	108.649948
848.461060	86.156792
848.415466	52.434830
848.369934	101.108055
848.324341	112.324219
848.278809	82.357849
848.233276	112.288101
848.187683	89.816032
848.142151	86.059860
848.096558	101.010544
848.050964	86.032181
848.005371	100.978058
847.959839	119.658455
847.914246	93.468132
847.868652	112.143723
847.823120	78.487984
847.777466	108.370735
847.731934	108.353310
847.686340	85.921562
847.640747	104.583336
847.595093	108.301033
847.549500	78.412277
847.503906	82.132980
847.458313	89.585205
847.412720	93.302910
847.367188	97.019424
847.321533	104.465652
847.275879	126.830742
847.230286	93.242897
847.184692	85.769669
847.139038	93.212906
847.093445	74.558327
847.047791	70.819016
847.002197	85.714493
846.956543	111.783531
846.910950	81.961403
846.865356	85.673134
846.819641	126.626869
846.773987	115.435341
846.728333	104.247406
846.682739	107.953156
846.637085	111.657715
846.591431	122.803726
846.545776	130.225418
846.500183	89.283066
846.454468	122.744461
846.408813	89.254341
846.363159	118.986641
846.317505	130.120697
846.271851	81.776993
846.226135	96.629990
846.180481	111.478203
846.134827	78.022186
846.089172	96.583351
846.043457	122.566833
845.997803	122.547112
845.952148	129.953293
845.906433	107.658264
845.860718	96.505669
845.815002	118.757095
845.769348	70.500679
845.723633	100.169052
845.677979	107.571671
845.632324	107.554359
845.586548	92.704353
845.540894	81.566704
845.495178	118.623383
845.449463	122.310677
845.403748	100.056267
845.358032	96.334976
845.312317	125.956230
845.266602	103.711967
845.220886	122.212288
845.175110	103.678581
845.129456	103.661896
845.083679	111.048439
845.037964	99.927513
844.992249	99.911430
844.946533	114.694656
844.900818	114.676193
844.854980	122.055008
844.809265	110.941238
844.763550	118.318275
844.717773	103.511826
844.672058	107.191422
844.626282	96.087181
844.580505	107.156914
844.534729	107.139664
844.489014	99.734657
844.443237	121.878296
844.397522	132.936737
844.351746	110.762779
844.305969	121.819443
844.260193	99.654404
844.214417	114.399597
844.168640	118.070900
844.122803	121.741013
844.077087	125.409935
844.031250	118.013878
843.985474	147.493591
843.939697	129.036118
843.893982	88.467659
843.848145	121.623451
843.802368	106.864006
843.756531	143.690521
843.710754	132.616043
843.664917	143.644241
843.619141	132.573334
843.573303	147.279984
843.527527	121.486427
843.481689	114.105232
843.435913	110.406639
843.390137	139.825882
843.344299	114.050117
843.298462	110.353310
843.252625	110.335533
843.206787	150.767609
843.160950	150.743332
843.115112	102.930084
843.069336	113.939957
843.023438	121.271385
842.977661	110.228958
842.931763	135.927155
842.885986	128.559036
842.840088	143.228424
842.794250	128.517624
842.748413	121.154236
842.702576	135.817719
842.656677	143.136154
842.610840	113.756569
842.565002	124.745171
842.519104	135.730240
842.473206	128.372787
842.427429	88.012871
842.381531	106.331749
842.335632	113.646667
842.289795	124.624649
842.243835	87.956169
842.197998	139.241501
842.152161	120.900772
842.106262	139.196640
842.060303	124.524300
842.014465	120.842346
841.968567	128.145477
841.922668	150.089081
841.876770	113.463707
841.830933	113.445427
841.784973	128.062912
841.739075	106.092171
841.693237	128.021637
841.647278	142.629700
841.601318	135.293549
841.555420	113.335793
841.509521	146.216171
841.463562	153.502243
841.417664	153.477509
841.371765	131.530945
841.325867	105.938408
841.279907	116.878716
841.234009	153.378601
841.188049	135.097458
841.142090	98.568748
841.096130	138.704025
841.050232	138.681671
841.004272	153.255051
840.958374	142.285324
840.912415	102.137100
840.866455	160.475281
840.820496	138.569962
840.774536	134.901627
840.728638	164.043106
840.682678	127.568520
840.636719	134.836411
840.590759	123.883759
840.544800	116.577682
840.498779	145.698608
840.452820	156.600769
840.406799	152.934235
840.360901	163.831680
840.314880	120.123871
840.268921	160.139343
840.222900	145.557755
840.176941	141.895920
840.130981	156.424133
840.084961	156.398911
840.039001	105.461334
839.992981	167.256531
839.947021	130.875305
839.901001	130.854202
839.854980	159.907135
839.808960	159.881348
839.763000	134.424011
839.716980	185.257263
839.670959	130.748749
839.625000	123.465019
839.578918	108.922157
839.532959	159.726730
839.486877	141.553146
839.440857	166.933197
839.394836	148.764282
839.348816	170.507172
839.302795	188.615814
839.256775	174.078827
839.210754	184.928925
839.164673	159.520798
839.118652	192.119064
839.072571	134.099228
839.026611	166.691071
838.980530	134.055969
838.934509	134.034348
838.888428	155.744522
838.842407	162.962173
838.796265	184.660675
838.750244	141.188324
838.704224	155.644073
838.658142	166.476105
838.612061	173.686172
838.566040	159.186646
838.519958	170.012848
838.473877	162.752014
838.427734	177.190262
838.381714	148.237320
838.335632	159.058304
838.289551	187.947662
838.243469	151.779388
838.197388	195.113449
838.151245	169.793564
838.105225	158.930038
838.059143	158.904404
838.013000	155.267883
837.966919	158.853134
837.920837	198.534378
837.874695	187.674942
837.828613	176.819000
837.782471	147.926727
837.736450	176.761948
837.690308	183.947037
837.644165	165.886246
837.598083	176.676407
837.551880	198.278244
837.505798	147.783569
837.459717	198.214264
837.413513	165.752457
837.367432	169.328430
837.321289	187.311859
837.275146	180.078491
837.229004	162.044495
837.182861	169.219162
837.136780	172.791672
837.090637	197.958511
837.044434	223.117203
836.998352	179.904190
836.952148	165.485138
836.906006	212.218430
836.859863	158.239044
836.813721	219.341446
836.767578	201.330139
836.721375	208.486847
836.675171	176.107010
836.629028	172.485138
836.582825	165.271576
836.536743	208.352264
836.490540	158.034821
836.444336	193.920517
836.398132	175.936508
836.351990	179.498062
836.305786	186.647858
836.259644	190.206528
836.213440	211.705154
836.167236	211.670975
836.121094	200.875610
836.074890	175.737778
836.028625	211.568466
835.982422	161.339737
835.936218	172.067932
835.890076	161.287628
835.843872	182.763138
835.797668	175.567596
835.751404	171.956818
835.705261	186.256470
835.658997	236.364273
835.612793	196.938431
835.566528	193.326508
835.520325	225.511169
835.474121	178.948212
835.427856	175.340927
835.381653	225.401932
835.335388	196.747681
835.289185	200.292557
835.242920	225.292740
835.196716	261.011322
835.150513	157.296494
835.104248	193.014511
835.057922	232.294754
835.011719	178.659409
834.965454	196.493607
834.919250	225.038147
834.872986	203.573059
834.826660	210.681931
834.780457	189.226089
834.734192	214.183609
834.687927	214.149002
834.641663	224.820129
834.595398	189.103851
834.549072	210.477814
834.502869	221.144348
834.456543	210.409821
834.410278	246.032745
834.364014	224.602310
834.317688	238.824173
834.271423	210.273880
834.225159	263.690735
834.178833	277.899384
834.132568	224.420929
834.086243	224.384659
834.039978	252.837097
833.993652	263.477783
833.947388	274.114990
833.901062	259.833282
833.854736	306.055481
833.808472	217.050797
833.762146	249.034424
833.715820	259.665375
833.669495	245.397461
833.623169	224.022339
833.576843	206.209457
833.530518	255.942795
833.484192	245.238876
833.437866	234.538391
833.391541	223.841385
833.345215	248.672440
833.298889	230.872803
833.252563	234.386810
833.206177	230.798187
833.159851	276.913055
833.113525	280.417877
833.067200	223.588242
833.020813	276.778809
832.974487	283.829803
832.928101	248.310928
832.881775	237.630615
832.835388	248.230652
832.789062	241.099365
832.742676	251.695419
832.696289	248.110291
832.649963	272.877197
832.603577	251.573364
832.557190	247.989975
832.510803	255.034164
832.464417	272.700775
832.418091	251.410706
832.371643	223.046677
832.325317	219.470764
832.278870	240.670944
832.232483	247.709442
832.186096	261.821930
832.139709	251.166901
832.093323	222.830368
832.046936	258.158508
832.000549	265.188446
831.954102	247.469208
831.907776	265.102692
831.861328	289.798737
831.814880	261.483398
831.768494	275.573059
831.722046	264.931244
831.675659	317.866089
831.629272	278.970673
831.582825	300.109772
831.536438	282.410553
831.489929	282.364868
831.443542	285.848206
831.397156	282.273560
831.350708	303.394989
831.304260	310.400452
831.257812	246.869522
831.211365	296.195496
831.164917	282.045319
831.118530	267.899719
831.072021	281.954071
831.025574	288.956177
830.979065	278.339569
830.932678	257.158234
830.886169	292.338104
830.839722	299.333954
830.793274	299.285522
830.746826	299.237122
830.700378	281.589355
830.653931	306.178894
830.607422	320.204254
830.560974	344.779541
830.514465	284.924744
830.468018	334.116913
830.421509	337.579315
830.375061	365.651733
830.328552	312.862885
830.282043	316.326996
830.235535	330.332489
830.189087	305.683807
830.142578	298.608246
830.096130	344.222046
830.049622	305.535400
830.003113	284.417969
829.956543	287.882690
829.910095	273.795319
829.863525	273.751007
829.817078	333.360718
829.770569	298.221832
829.723999	284.141876
829.677490	333.198883
829.630981	343.665314
829.584473	322.572357
829.537964	350.565369
829.491455	350.508606
829.444885	332.929291
829.398376	336.379333
829.351868	371.358734
829.305298	346.778900
829.258789	353.727234
829.212219	336.161560
829.165710	343.109375
829.119141	367.557678
829.072571	349.998230
829.026001	314.947418
828.979492	367.379150
828.932922	356.824829
828.886353	349.771606
828.839783	363.703583
828.793274	367.141266
828.746704	426.514130
828.700134	325.076965
828.653564	380.942505
828.606995	356.420563
828.560425	391.300385
828.513794	356.305145
828.467285	335.291718
828.420715	380.634125
828.374146	366.606537
828.327515	387.492706
828.280945	362.997437
828.234375	366.428436
828.187744	387.304443
828.141113	432.594360
828.094604	369.738495
828.047974	421.991638
828.001404	394.027527
827.954773	386.990875
827.908142	366.013153
827.861572	365.953857
827.814941	428.619385
827.768311	411.129211
827.721680	348.358154
827.675110	452.792206
827.628479	379.587341
827.581909	337.743195
827.535278	369.020386
827.488586	455.979614
827.441956	421.103790
827.395386	410.596649
827.348694	396.613861
827.302063	403.506592
827.255493	389.529449
827.208862	385.988953
827.162170	462.416321
827.115540	427.578888
827.068848	448.363708
827.022217	458.716431
826.975647	420.421936
826.928955	486.359772
826.882263	444.599731
826.835571	448.000549
826.789001	482.651031
826.742249	472.157562
826.695618	489.436951
826.648987	458.122040
826.602295	461.517853
826.555603	489.199005
826.508972	457.899323
826.462280	440.483246
826.415588	412.669373
826.368896	433.405945
826.322266	461.069183
826.275574	471.392822
826.228882	440.126343
826.182190	460.845001
826.135498	495.414673
826.088806	471.087219
826.042053	429.451050
825.995361	481.322754
825.948669	457.009369
825.901978	498.474823
825.855286	491.471893
825.808594	512.155273
825.761841	546.671692
825.715149	505.070404
825.668396	463.482605
825.621765	473.782227
825.575012	542.859497
825.528320	535.857178
825.481567	535.770264
825.434814	535.683411
825.388123	501.041901
825.341370	511.325348
825.294617	521.605469
825.247864	556.058655
825.201172	583.594238
825.154419	538.614990
825.107727	490.198242
825.060974	569.504211
825.014160	590.117676
824.967468	565.869019
824.920654	565.777222
824.873962	538.091064
824.827148	534.555054
824.780396	568.950134
824.733643	586.095947
824.686890	544.636108
824.640137	592.798828
824.593384	592.702698
824.546631	613.278870
824.499817	626.958679
824.453003	595.858521
824.406311	575.099609
824.359497	657.641907
824.312744	605.896301
824.265930	574.819702
824.219177	643.555969
824.172302	553.987671
824.125549	567.659241
824.078735	557.247742
824.031982	601.867432
823.985168	622.401917
823.938354	611.986511
823.891541	608.449646
823.844788	635.846985
823.797974	594.506348
823.751221	645.948303
823.704346	680.196838
823.657532	662.912537
823.610718	614.725830
823.563904	604.325073
823.517090	652.290527
823.470276	686.510132
823.423462	665.806763
823.376648	710.307373
823.329773	727.346436
823.282959	764.961914
823.236084	685.953125
823.189331	709.846252
823.142456	661.729858
823.095642	699.331543
823.048767	678.652771
823.001953	753.936218
822.955017	664.726685
822.908203	654.341187
822.861328	647.384338
822.814514	633.580200
822.767639	664.295105
822.720764	722.389221
822.673950	640.117798
822.627075	677.661743
822.580200	725.459351
822.533386	677.441650
822.486450	735.486389
822.439636	656.699768
822.392700	742.087036
822.345825	772.739319
822.298950	793.125732
822.252075	734.889404
822.205200	741.605103
822.158325	782.488403
822.111450	878.021240
822.064514	785.650146
822.017639	833.336975
821.970764	720.514465
821.923828	792.095764
821.876953	751.003296
821.830078	754.294434
821.783142	815.597656
821.736267	713.105530
821.689331	750.515442
821.642456	777.680542
821.595520	798.016174
821.548584	760.379028
821.501648	797.756897
821.454712	801.035950
821.407837	787.273376
821.360901	763.292603
821.314026	807.459595
821.267029	817.547729
821.220154	824.226685
821.173157	800.255371
821.126221	861.411560
821.079285	871.484314
821.032349	874.746338
820.985413	871.201050
820.938477	860.851746
820.891541	864.113892
820.844604	840.163208
820.797668	979.464233
820.750671	911.297791
820.703735	914.549500
820.656738	914.400818
820.609802	822.487122
820.562866	931.094421
820.515930	873.183838
820.468933	893.424194
820.421997	855.917480
820.375000	913.509460
820.328003	930.337952
820.281006	926.791870
820.234009	933.429749
820.187073	970.609131
820.140076	994.203674
820.093140	994.042053
820.046082	983.704163
819.999146	1003.893433
819.952148	1007.121216
819.905090	1027.300049
819.858093	1057.641968
819.811096	1006.630066
819.764099	1040.354126
819.717163	1009.690918
819.670105	1070.504883
819.623108	989.039856
819.576111	951.626770
819.529114	1005.648315
819.482117	1079.965210
819.435059	978.241943
819.388062	1103.304565
819.341064	1076.054565
819.294006	977.764709
819.247009	1058.790894
819.199951	1004.504028
819.152954	1024.630371
819.105896	1017.701599
819.058838	1054.721802
819.011841	1078.209961
818.964783	1138.864136
818.917725	1128.542236
818.870667	1175.655151
818.823669	1165.330566
818.776611	1178.649902
818.729553	1215.601562
818.682434	1218.779907
818.635376	1201.703735
818.588379	1191.383179
818.541321	1221.559692
818.494263	1190.995605
818.447144	1167.188110
818.400146	1305.284180
818.353027	1281.465820
818.306030	1207.079224
818.258911	1220.367554
818.211853	1237.022095
818.164795	1226.710571
818.117676	1182.707031
818.070618	1222.942383
818.023499	1263.164673
817.976440	1222.544434
817.929321	1269.488281
817.882202	1326.517090
817.835144	1292.638794
817.788025	1386.667969
817.740967	1335.964966
817.693848	1450.144043
817.646729	1325.437988
817.599670	1419.400391
817.552551	1294.739868
817.505432	1489.549072
817.458374	1452.326050
817.411255	1425.199097
817.364075	1572.841064
817.316956	1451.616943
817.269897	1340.511230
817.222717	1457.862549
817.175598	1363.584839
817.128479	1403.659302
817.081360	1373.213379
817.034180	1450.199463
816.987061	1416.399414
816.939941	1382.610229
816.892822	1385.740479
816.845642	1365.386230
816.798523	1593.250244
816.751404	1438.722168
816.704224	1495.490967
816.657104	1505.305176
816.609985	1521.820068
816.562744	1501.463379
816.515625	1558.184692
816.468506	1614.887573
816.421265	1698.370605
816.374146	1627.758789
816.326965	1617.447388
816.279785	1553.567993
816.232605	1667.135498
816.185486	1696.987915
816.138306	1572.888428
816.091125	1642.898682
816.043945	1562.339600
815.996765	1725.986938
815.949585	1555.141724
815.902405	1628.453003
815.855164	1601.441284
815.807983	1621.236938
815.760803	1617.630615
815.713623	1644.100342
815.666443	1643.832520
815.619263	1720.397949
815.572083	1593.196411
815.524841	1776.608765
815.477661	1709.540283
815.430420	1719.276978
815.383240	1695.631714
815.335999	1845.534546
815.288757	1865.254395
815.241577	1754.854980
815.194336	1834.625366
815.147156	1891.023682
815.099915	1834.027466
815.052673	1750.377197
815.005432	1770.093018
814.958252	1823.131836
814.911011	1822.834717
814.863770	1745.904419
814.816528	1755.613770
814.769287	1788.635620
814.722046	1775.022949
814.674866	1808.030762
814.627563	1691.215210
814.580322	1667.639160
814.533081	1847.083496
814.485840	1873.402710
814.438599	1753.325439
814.391296	1812.915771
814.344055	1872.486572
814.296753	1842.252930
814.249573	1812.029053
814.202209	1934.732056
814.154968	2047.423706
814.107727	1940.747559
814.060486	1890.591309
814.013184	1933.470459
813.965881	1923.190430
813.918640	2035.791870
813.871338	1965.729492
813.824097	2001.928345
813.776794	2001.601929
813.729431	1871.839722
813.682190	1924.627563
813.634949	1930.949219
813.587585	1841.068726
813.540283	1943.586182
813.492981	1910.107544
813.445740	2049.052002
813.398376	1929.374878
813.351074	2041.754395
813.303833	1948.629395
813.256531	2017.894043
813.209167	2070.571533
813.161865	1917.864502
813.114502	2119.573486
813.067261	2132.472900
813.019958	1989.762451
812.972595	2231.083252
812.925232	2177.764648
812.877930	2197.263916
812.830566	2100.956299
812.783325	2153.542236
812.735962	2338.411621
812.688599	2119.769775
812.641296	2278.132568
812.593933	2281.066895
812.546631	2128.648193
812.499207	2128.300781
812.451904	2088.302246
812.404541	2193.680908
812.357239	2123.955566
812.309875	2113.700928
812.262512	2146.377197
812.215149	2162.534668
812.167786	2244.707764
812.120361	2241.040771
812.073059	2352.873779
812.025635	2180.919678
811.978333	2441.175537
811.930969	2391.301758
811.883545	2318.359619
811.836182	2446.574707
811.788818	2545.077148
811.741394	2432.591064
811.694031	2471.741699
811.646667	2474.633301
811.599304	2368.802734
811.551880	2473.825195
811.504456	2433.899170
811.457092	2492.775146
811.409668	2528.584717
811.362305	2356.993652
811.314941	2419.144287
811.267517	2343.060547
811.220154	2447.966797
811.172729	2477.174561
811.125305	2378.093994
811.077881	2594.757568
811.030457	2469.384766
810.983032	2643.223877
810.935608	2596.773438
810.888184	2671.938965
810.840820	2691.218506
810.793396	2782.771240
810.745911	2719.903564
810.698486	2778.577881
810.651062	2847.084473
810.603638	3004.217529
810.556213	2865.850830
810.508728	2898.204834
810.461365	2904.294678
810.413879	2992.411377
810.366394	2860.697754
810.318970	2932.392090
810.271545	2771.215088
810.224060	2819.947510
810.176636	2776.866455
810.129211	2789.524414
810.081726	2936.551758
810.034302	2785.335938
809.986816	2876.618164
809.939331	2905.630127
809.891907	2911.705811
809.844421	3029.119873
809.796936	2979.511963
809.749451	3087.055664
809.702026	3099.643555
809.654480	3210.404541
809.607056	3085.541992
809.559570	3261.699463
809.512085	3336.398682
809.464600	3316.230713
809.417114	3338.577881
809.369568	3445.921387
809.322144	3278.647217
809.274597	3294.452637
809.227173	3264.504150
809.179626	3169.220459
809.132141	3119.701904
809.084656	3285.766357
809.037109	3063.165771
808.989563	3261.836182
808.942078	3297.213135
808.894592	3205.281006
808.847107	3253.709229
808.799561	3200.969727
808.752014	3376.617676
808.704529	3369.541504
808.656982	3417.910889
808.609497	3508.655273
808.561951	3599.369873
808.514404	3611.820068
808.466858	3536.267090
808.419373	3688.847412
808.371826	3684.985840
808.324280	3661.579590
808.276733	3797.778809
808.229187	3780.874756
808.181641	3630.478760
808.134094	3668.950928
808.086548	3668.350586
808.039001	3644.969482
807.991455	3735.482422
807.943909	3562.442383
807.896301	3630.169189
807.848755	3681.612061
807.801208	3690.765137
807.753662	3576.367676
807.706055	3582.283936
807.658508	3734.456055
807.610901	3824.835205
807.563416	3645.507812
807.515747	3895.052246
807.468201	3757.996582
807.420654	3832.074463
807.373108	3870.411133
807.325439	4090.536865
807.277832	3985.997803
807.230347	4124.897461
807.182739	4172.895020
807.135132	3938.620117
807.087463	3785.516602
807.039917	4096.250977
806.992310	3946.414307
806.944702	3877.681885
806.897156	3961.330811
806.849548	3941.235352
806.801880	3866.055908
806.754272	3784.420898
806.706665	3793.519775
806.659058	3841.484131
806.611450	3889.432617
806.563843	3820.798340
806.516235	3907.583496
806.468567	4026.709229
806.420959	4026.049805
806.373291	4018.918701
806.325684	3898.553955
806.278076	3982.020020
806.230469	4036.350098
806.182800	4236.180176
806.135132	4174.055664
806.087524	4115.184082
806.039856	4266.420410
805.992249	4133.225586
805.944580	4213.325684
805.896973	4167.407715
805.849243	4111.814453
805.801636	4069.157715
805.753967	4107.238770
805.706299	3909.631592
805.658691	3989.688477
805.611023	3998.717041
805.563354	3762.502197
805.515625	4019.991211
805.468018	3922.558838
805.420349	3921.916016
805.372681	3972.869141
805.324951	4162.446289
805.277283	4142.421875
805.229614	4177.197754
805.181885	4279.637207
805.134216	4098.499023
805.086548	4416.761719
805.038879	4370.943359
804.991211	4151.232910
804.943481	4231.051758
804.895752	4304.405762
804.848083	4509.711426
804.800354	4238.626953
804.752686	4382.736328
804.705017	4259.758789
804.657288	4416.684570
804.609619	4142.576172
804.561890	4318.763672
804.514160	4395.221191
804.466431	4105.177246
804.418701	4159.145508
804.371033	4283.795898
804.323303	4087.093018
804.275513	4173.163086
804.227844	4230.295898
804.180115	4325.948730
804.132385	4527.533203
804.084595	4472.212891
804.036865	4609.507812
803.989197	4589.495117
803.941467	4691.427734
803.893738	4786.910156
803.845947	4433.260742
803.798218	4644.217285
803.750488	4624.214844
803.702759	4594.600098
803.654968	4597.052246
803.607178	4727.712402
803.559448	4541.063965
803.511719	4549.931641
803.463928	4478.705078
803.416199	4538.830078
803.368408	4522.072266
803.320679	4572.563477
803.272888	4594.224609
803.225159	4523.048340
803.177307	4787.947754
803.129578	4611.163574
803.081787	4693.592773
803.033997	4823.978516
802.986206	4819.988281
802.938416	4931.123047
802.890686	4949.498047
802.842896	5035.000000
802.795105	5152.437012
802.747253	5205.919922
802.699524	5054.888672
802.651672	5175.458496
802.603882	5244.881836
802.556091	5311.088379
802.508301	5089.888672
802.460510	5322.115234
802.412720	5273.360352
802.364929	5336.326172
802.317078	5169.515137
802.269226	5200.572266
802.221436	5419.829102
802.173645	5109.559082
802.125793	5427.616699
802.078003	5595.712891
802.030151	5489.593262
801.982361	5514.190918
801.934509	5643.947266
801.886719	5926.605469
801.838867	5696.252930
801.791016	6160.371582
801.743164	6210.316895
801.695312	6196.560059
801.647522	6456.608398
801.599609	6509.662598
801.551819	6553.151367
801.503967	6739.822754
801.456055	6668.719727
801.408203	6619.907715
801.360352	6866.906738
801.312500	6789.457031
801.264709	6603.928223
801.216797	6790.406250
801.168945	6728.898926
801.121094	6622.920410
801.073181	6637.719727
801.025391	6811.360840
800.977478	6718.125977
800.929565	6869.465332
800.881714	6900.090332
800.833862	7035.475586
800.785950	7027.971191
800.738037	7217.245117
800.690247	7473.095215
800.642334	7513.113281
800.594421	7575.323730
800.546570	7599.453125
800.498596	7826.530762
800.450745	7780.854980
800.402832	7693.981934
800.354980	7920.931641
800.307068	7900.615234
800.259155	7829.607910
800.211243	7825.152832
800.163330	7529.283691
800.115417	7515.377930
800.067505	7580.639648
800.019653	7516.073730
799.971680	7343.902344
799.923767	7421.819336
799.875854	7417.434570
799.827942	7232.708496
799.779968	7478.264160
799.732117	7328.379395
799.684143	7368.285156
799.636230	7506.194336
799.588257	7489.153809
799.540344	7364.651367
799.492371	7448.768066
799.444458	7393.827148
799.396545	7771.719727
799.348572	7634.617188
799.300598	7576.514160
799.252686	7370.019043
799.204712	7646.636719
799.156738	7556.993164
799.108826	7445.286133
799.060852	7352.549316
799.012878	7139.949707
798.964966	6984.201660
798.916992	7042.979492
798.869019	7145.887695
798.821045	6816.799316
798.773071	7023.742188
798.725098	6820.860840
798.677124	7075.006348
798.629150	6903.691895
798.581116	7019.121582
798.533203	7036.866211
798.485168	7079.799316
798.437256	6927.489258
798.389221	7197.106934
798.341248	6884.288086
798.293274	6839.093262
798.245300	6916.637695
798.197266	6799.087402
798.149292	6838.863281
798.101257	6293.612305
798.053223	6575.601074
798.005310	6568.230469
797.957275	6375.384766
797.909241	5987.726562
797.861206	6043.308594
797.813232	6058.024414
797.765198	5717.733398
797.717224	5657.111328
797.669189	5539.978516
797.621155	5799.691895
797.573120	5535.015625
797.525146	5653.387207
797.477112	5658.733398
797.429016	5623.284180
797.381042	5415.284668
797.333008	5737.500000
797.284912	5523.276855
797.236877	5538.047363
797.188843	5452.479492
797.140808	5454.716309
797.092773	5400.533691
797.044800	5195.943359
796.996704	5198.221191
796.948608	4915.410156
796.900635	4764.249512
796.852539	4750.937988
796.804504	4787.730469
796.756409	4667.973145
796.708374	4598.338867
796.660339	4319.034668
796.612244	4380.907715
796.564209	4286.325195
796.516113	4420.130859
796.468018	4347.466309
796.419983	4212.282227
796.371887	4249.107910
796.323792	4276.543457
796.275757	4160.190918
796.227600	4337.636230
796.179504	4208.813477
796.131470	4117.521973
796.083374	4194.932617
796.035278	4169.256836
795.987183	3999.953613
795.939087	3936.854248
795.891052	4054.822266
795.842896	3941.798584
795.794800	3888.101074
795.746643	3887.460205
795.698547	3746.444824
795.650452	3798.849121
795.602356	3732.736328
795.554260	3520.104248
795.506165	3566.284668
795.458069	3550.112549
795.409912	3611.854248
795.361816	3514.667969
795.313660	3439.320557
795.265564	3435.638916
795.217407	3500.472656
795.169312	3465.643799
795.121216	3602.056396
795.073059	3567.222168
795.024902	3348.776855
794.976746	3307.772217
794.928589	3363.228760
794.880493	3384.448975
794.832336	3374.560303
794.784180	3209.190674
794.736023	3180.678955
794.687866	3264.088135
794.639709	3014.898438
794.591553	3126.275879
794.543396	2914.476074
794.495239	2960.594482
794.447144	2888.666016
794.398926	2944.090088
794.350830	2775.930664
794.302612	2946.223389
794.254456	2896.072510
794.206238	2793.178223
794.158081	2724.450928
794.109924	2764.334229
794.061707	2832.122070
794.013550	2806.842773
793.965393	2648.230225
793.917236	2815.218018
793.869019	2758.954346
793.820862	2752.300293
793.772583	2692.966553
793.724426	2642.947510
793.676270	2611.532227
793.628052	2645.172607
793.579895	2511.570312
793.531677	2473.999268
793.483459	2445.728271
793.435242	2553.661621
793.387085	2395.403564
793.338806	2475.460693
793.290649	2546.209717
793.242371	2508.669678
793.194214	2449.492432
793.145996	2501.656982
793.097778	2420.857910
793.049561	2473.009766
793.001343	2599.322266
792.953064	2694.690430
792.904846	2595.374268
792.856628	2619.659424
792.808411	2619.226807
792.760193	2658.940918
792.711914	2655.414307
792.663696	2648.801270
792.615417	2669.970703
792.567200	2728.166748
792.518982	2767.829590
792.470703	2748.861572
792.422485	2705.222900
792.374207	2701.691895
792.325928	2790.670410
792.277710	2700.799561
792.229492	2765.087891
792.181152	2844.765381
792.132935	2853.540039
792.084656	2945.500732
792.036377	2858.758545
791.988098	2966.087891
791.939819	3116.495361
791.891602	3023.609619
791.843323	2909.204590
791.795044	3191.901123
791.746765	3240.614014
791.698486	3341.619385
791.650208	3365.679199
791.601929	3463.554199
791.553650	3386.095215
791.505371	3462.409668
791.457031	3461.837402
791.408752	3322.937500
791.360474	3411.518066
791.312195	3303.401611
791.263916	3259.841797
791.215576	3283.878174
791.167297	3228.050049
791.118958	3267.438232
791.070679	3254.616455
791.022339	3226.449463
790.974060	3222.846680
790.925720	3219.245117
790.877441	3203.370850
790.829102	3113.873535
790.780823	3306.601562
790.732422	3180.314453
790.684143	3155.257812
790.635803	3035.168945
790.587524	3206.324951
790.539185	3077.072510
790.490845	3140.914062
790.442505	2919.801025
790.394104	2873.368896
790.345825	2970.902832
790.297424	2731.553467
790.249146	2685.175049
790.200745	2791.875244
790.152405	2724.076904
790.104065	2748.108154
790.055725	2582.427246
790.007385	2637.066406
789.958984	2658.041260
789.910706	2639.252197
789.862305	2620.469238
789.813904	2687.294434
789.765564	2579.864990
789.717224	2787.260010
789.668823	2792.910400
789.620483	2590.805420
789.572083	2697.290771
789.523682	2599.110596
789.475342	2675.022461
789.427002	2711.217773
789.378601	2869.507812
789.330200	2615.703369
789.281799	2517.617432
789.233459	2550.763428
789.185059	2541.189209
789.136658	2613.972168
789.088257	2464.107178
789.039856	2530.780273
788.991455	2438.902344
788.943115	2490.316895
788.894714	2465.523682
788.846252	2452.927002
788.797913	2629.224121
788.749451	2634.881104
788.701050	2530.894531
788.652649	2734.496826
788.604248	2794.936035
788.555847	2599.651367
788.507385	2687.484863
788.458984	2687.039795
788.410522	2552.721680
788.362122	2634.434814
788.313660	2521.460449
788.265259	2426.769775
788.216858	2365.556641
788.168396	2362.124756
788.119995	2252.309570
788.071533	2148.608887
788.023071	2166.484131
787.974670	2169.163330
787.926208	2065.527588
787.877747	2059.111328
787.829346	2049.660645
787.780884	1870.195312
787.732422	1915.418335
787.684021	1884.750732
787.635559	1857.127808
787.587097	1835.581909
787.538635	1877.746948
787.490173	1798.577515
787.441711	1707.304077
787.393250	1846.493530
787.344788	1721.895752
787.296326	1767.075439
787.247803	1657.684570
787.199341	1621.049805
787.150879	1620.781128
787.102417	1559.932617
787.053894	1517.275146
787.005432	1547.303589
786.956909	1456.222412
786.908508	1449.927002
786.859985	1265.071045
786.811523	1276.965210
786.763000	1346.339600
786.714478	1255.366943
786.666016	1403.358276
786.617493	1294.262451
786.569031	1224.507935
786.520508	1218.258911
786.471985	1263.394043
786.423523	1248.074585
786.375000	1383.833862
786.326477	1241.618774
786.277954	1362.231689
786.229431	1268.386719
786.180908	1237.981689
786.132446	1144.188354
786.083923	1159.090942
786.035339	1143.808838
785.986816	1086.287231
785.938354	1131.361572
785.889771	1091.959839
785.841248	1067.651001
785.792725	1121.752197
785.744202	1013.027466
785.695679	1027.931641
785.647095	1012.691345
785.598572	1075.806030
785.550049	1069.601562
785.501465	988.087646
785.452942	1012.019348
785.404358	1014.862915
785.355835	1065.880859
785.307251	1005.494690
785.258728	963.188354
785.210205	1041.274536
785.161621	1004.994141
785.113037	1068.005127
785.064453	980.596863
785.015930	983.441528
784.967346	965.236511
784.918762	995.140991
784.870239	952.892212
784.821594	829.509766
784.773071	922.526123
784.724487	925.377441
784.675903	877.160217
784.627319	874.011108
784.578735	813.806519
784.530151	867.715942
784.481567	912.601562
784.432983	867.427795
784.384399	834.272949
784.335754	837.134949
784.287170	947.995361
784.238586	860.852783
784.190002	902.695679
784.141357	872.560852
784.092773	815.454041
784.044128	830.306091
783.995605	842.156128
783.946960	830.030273
783.898376	772.968384
783.849670	793.808472
783.801086	775.706543
783.752502	691.731445
783.703857	799.400940
783.655212	835.190308
783.606628	703.358826
783.558044	715.212036
783.509338	676.196899
783.460693	711.982849
783.412109	729.810669
783.363464	702.774658
783.314819	678.737610
783.266174	660.687561
783.217529	732.314697
783.168884	669.433594
783.120300	663.346252
783.071594	618.422729
783.022949	669.099854
782.974304	594.324707
782.925659	597.211975
782.877014	594.127136
782.828369	597.013489
782.779663	561.099365
782.731018	528.181274
782.682373	554.945679
782.633667	560.819519
782.585022	551.778564
782.536377	539.758423
782.487671	581.411011
782.439026	536.597839
782.390320	560.353455
782.341614	551.319946
782.292969	595.922424
782.244263	577.948608
782.195557	613.595947
782.146912	619.450134
782.098206	631.257629
782.049500	595.427063
782.000854	645.930847
781.952087	663.680298
781.903442	648.691650
781.854736	642.633423
781.806030	675.247803
781.757324	606.729675
781.708618	704.759827
781.659912	728.427979
781.611206	671.825867
781.562500	707.380310
781.513794	734.007812
781.465027	704.173706
781.416382	692.173706
781.367615	695.028748
781.318909	709.761658
781.270203	694.797424
781.221436	721.400330
781.172791	733.153198
781.124023	798.321411
781.075256	712.138428
781.026550	759.487915
780.977844	827.585388
780.929077	857.105225
780.880310	812.483521
780.831604	812.348267
780.782837	785.534485
780.734131	740.946899
780.685364	728.970398
780.636597	660.704590
780.587891	639.858398
780.539062	627.904602
780.490356	580.418945
780.441589	592.165588
780.392822	553.582642
780.344055	583.088867
780.295288	556.357605
780.246521	591.771240
780.197815	482.213226
780.148987	553.121826
780.100281	508.669006
780.051453	520.411804
780.002686	520.325134
779.953918	478.855865
779.905151	437.400391
779.856384	452.102081
779.807556	457.935608
779.758789	475.582916
779.710022	428.248657
779.661194	369.118378
779.612427	366.104401
779.563599	348.331635
779.514832	416.157410
779.466003	345.264557
779.417236	306.850708
779.368408	327.449524
779.319580	312.647430
779.270813	333.238434
779.221985	342.028442
779.173218	309.543121
779.124390	256.435822
779.075562	274.075378
779.026733	279.922791
778.977966	318.174988
778.929138	291.611786
778.880310	294.508240
778.831482	294.459137
778.782593	264.969055
778.733826	276.699310
778.684937	258.994476
778.636108	241.295517
778.587341	238.313141
778.538513	214.740219
778.489624	211.763260
778.440796	229.371948
778.391968	232.273865
778.343079	220.476395
778.294250	223.378815
778.245422	199.831924
778.196594	199.798599
778.147705	196.827545
778.098816	199.731949
778.049988	211.445602
778.001099	179.111542
777.952271	243.668488
777.903381	246.563110
777.854553	205.434982
777.805664	217.137894
777.756836	178.962173
777.707886	146.665833
777.659058	190.633774
777.610168	199.398972
777.561279	193.502014
777.512451	205.195160
777.463562	216.884399
777.414673	181.683624
777.365784	146.494598
777.316895	181.622986
777.268005	164.019196
777.219116	163.991806
777.170227	184.459991
777.121277	146.372391
777.072388	152.201874
777.023560	184.367645
776.974670	187.262848
776.925720	181.380600
776.876831	155.025269
776.827881	157.923904
776.778992	149.125443
776.730103	152.024094
776.681152	175.383118
776.632263	157.818451
776.583313	151.947952
776.534424	137.314636
776.485535	122.686203
776.436584	143.110001
776.387695	178.127594
776.338684	134.303299
776.289795	143.038315
776.240906	122.583786
776.191956	96.299744
776.143005	157.555069
776.094055	131.273972
776.045105	151.669022
775.996216	154.559906
775.947266	137.039658
775.898315	157.423523
775.849365	136.993866
775.800415	157.370911
775.751465	148.603256
775.702515	131.098602
775.653564	142.727966
775.604553	107.756165
775.555664	99.002632
775.506653	101.897446
775.457703	142.632584
775.408752	119.325684
775.359802	84.386986
775.310852	107.648163
775.261841	110.539093
775.212891	125.062798
775.163879	162.845261
775.114929	145.373245
775.065918	116.279152
775.016968	151.137634
774.968018	136.582321
774.918945	130.748444
774.869995	142.346725
774.820984	130.704727
774.772034	130.682877
774.723022	139.371765
774.674011	121.929893
774.625061	139.325150
774.576050	130.595490
774.527039	136.376923
774.478027	121.848351
774.429016	116.026642
774.380005	147.909225
774.330994	115.987831
774.281982	133.363693
774.232971	147.835022
774.183960	110.133156
774.134949	144.887802
774.085876	141.966293
774.036926	107.181099
773.987915	133.229889
773.938904	112.936874
773.889832	121.603973
773.840820	118.688782
773.791809	124.457649
773.742737	147.587860
773.693665	121.522606
773.644653	112.823532
773.595581	130.159210
773.546570	127.245483
773.497559	112.766899
773.448486	130.093872
773.399475	104.057678
773.350403	106.930267
773.301331	101.133324
773.252319	106.894470
773.203247	112.653687
773.154236	124.187119
773.105103	92.402847
773.056030	112.597115
773.007019	115.464890
772.957947	95.242584
772.908875	86.569664
772.859802	100.981033
772.810730	69.232544
772.761658	86.526184
772.712585	77.860527
772.663513	100.913406
772.614441	89.365479
772.565369	95.115059
772.516296	86.453751
772.467163	106.608437
772.418091	97.948097
772.368958	95.051346
772.319946	115.194458
772.270813	95.019508
772.221741	69.093521
772.172668	89.230843
772.123535	86.337959
772.074402	83.446045
772.025330	80.555092
771.976257	92.047539
771.927124	60.396076
771.877991	74.763565
771.828918	69.000954
771.779785	83.362183
771.730652	68.977829
771.681580	68.966270
771.632446	68.954712
771.583313	71.815788
771.534180	89.036644
771.485046	66.048378
771.435974	74.650864
771.386780	66.026230
771.337708	60.274715
771.288513	60.264610
771.239380	88.947128
771.190247	71.719528
771.141113	54.497704
771.091980	77.431122
771.042908	51.612091
770.993713	74.538300
770.944519	57.327538
770.895447	63.049717
770.846313	71.635391
770.797119	48.703896
770.747925	68.746910
770.698792	71.599350
770.649658	48.679394
770.600525	65.849304
770.551331	77.288391
770.502197	65.827217
770.453003	65.816177
770.403870	71.527321
770.354675	65.794090
770.305481	57.202656
770.256287	51.473755
770.207153	48.605946
770.157959	68.608643
770.108765	45.731419
770.059631	51.439213
770.010437	68.574112
769.961243	57.135502
769.912048	59.982208
769.862854	59.972141
769.813660	65.672752
769.764465	51.387440
769.715271	42.815678
769.666077	51.370190
769.616882	62.775249
769.567688	57.058826
769.518494	57.049248
769.469238	57.039669
769.420044	45.624077
769.370850	65.573601
769.321594	42.758209
769.272461	74.101784
769.223206	48.443031
769.173950	74.076904
769.124817	59.821297
769.075562	59.811253
769.026306	59.801208
768.977112	68.332756
768.927856	51.240963
768.878662	62.617321
768.829407	62.606804
768.780212	59.751003
768.730957	51.206543
768.681763	42.664951
768.632446	56.877045
768.583252	56.867489
768.533997	56.857937
768.484741	51.163544
768.435486	56.838833
768.386230	42.621964
768.337036	45.455788
768.287781	56.810184
768.238525	59.640671
768.189209	31.235102
768.140015	51.103397
768.090759	53.933407
768.041443	39.733727
767.992188	36.889400
767.942932	42.557541
767.893677	53.897156
767.844421	56.724312
767.795105	48.207561
767.745850	36.858410
767.696594	39.686996
767.647278	48.183254
767.598022	42.507488
767.548767	48.167053
767.499451	42.493195
767.450134	45.318455
767.400879	22.655416
767.351562	42.471764
767.302307	31.140722
767.252991	33.965984
767.203735	33.960270
767.154419	42.443199
767.105103	31.119778
767.055786	25.457354
767.006470	42.421787
766.957214	39.587009
766.907837	45.234684
766.858582	16.960154
766.809265	28.262167
766.759949	45.211861
766.710632	33.903191
766.661316	50.846230
766.612000	39.540413
766.562683	16.943041
766.513367	36.703743
766.464050	47.989124
766.414673	33.868977
766.365356	42.329098
766.316040	45.143436
766.266724	42.314850
766.217346	36.666698
766.168030	39.480568
766.118713	47.932617
766.069336	47.924549
766.020020	33.823399
765.970703	47.908417
765.921326	14.088339
765.871948	33.806320
765.822632	28.167191
765.773254	36.611183
765.723938	39.420792
765.674561	50.675339
765.625244	45.037163
765.575867	45.029579
765.526489	36.580372
765.477112	42.201012
765.427795	33.755123
765.378418	25.312078
765.329041	47.803654
765.279663	36.549576
765.230286	42.165485
765.180908	30.916147
765.131531	56.201710
765.082153	44.953793
765.032715	44.946220
764.983337	36.512653
764.934021	33.698307
764.884644	33.692631
764.835205	56.144924
764.785828	33.681278
764.736450	47.707104
764.687073	33.669930
764.637634	50.496380
764.588257	25.243937
764.538818	39.261726
764.489441	36.451172
764.440063	30.838102
764.390625	47.650852
764.341187	30.827707
764.291809	28.020464
764.242432	39.222038
764.192932	42.016529
764.143555	33.607555
764.094116	36.402046
764.044739	55.993710
763.995300	27.992134
763.945862	33.584896
763.896484	55.965389
763.847046	33.573574
763.797607	30.770584
763.748169	36.359104
763.698730	27.963825
763.649292	36.346844
763.599854	22.363516
763.550415	33.539616
763.500977	39.122952
763.451538	33.528301
763.402100	44.696861
763.352661	39.103157
763.303162	30.718725
763.253723	36.297825
763.204285	39.083370
763.154846	22.329586
763.105408	25.116547
763.055908	39.063591
763.006470	47.426357
762.957031	33.471779
762.907532	47.410351
762.858032	22.306990
762.808594	44.606449
762.759094	50.173786
762.709656	47.378357
762.660156	30.651409
762.610718	44.576344
762.561218	22.284409
762.511780	5.570162
762.462280	44.553772
762.412781	30.625547
762.363342	47.322403
762.313843	30.615208
762.264343	41.740963
762.214783	44.516174
762.165344	38.945076
762.115845	19.469250
762.066345	30.589371
762.016846	38.925350
761.967346	27.799128
761.917847	19.456102
761.868286	25.010765
761.818848	50.013081
761.769287	16.668211
761.719788	24.998095
761.670288	38.879356
761.620789	22.213022
761.571228	33.313904
761.521729	36.083965
761.472229	33.302650
761.422668	30.522270
761.373169	30.517113
761.323608	36.059586
761.274109	44.373531
761.224609	44.366032
761.175049	47.130943
761.125488	27.719398
761.075989	36.029129
761.026489	38.794044
760.976929	38.787487
760.927307	41.550999
760.877808	30.465582
760.828308	27.691301
760.778687	38.761269
760.729187	35.986523
760.679626	35.980438
760.630066	35.974358
760.580566	44.268646
760.530945	41.494839
760.481384	16.595129
760.431824	44.246197
760.382263	33.179035
760.332703	33.173424
760.283142	30.403830
760.233521	38.689240
760.184021	22.104399
760.134460	35.913574
760.084839	16.572691
760.035278	27.616482
759.985657	33.134171
759.936096	30.367853
759.886536	24.842222
759.836975	33.117359
759.787354	22.074505
759.737732	35.865002
759.688232	24.825417
759.638611	33.094955
759.588989	35.846802
759.539368	41.354694
759.489807	46.860722
759.440186	38.584652
759.390564	24.800222
759.341003	46.836937
759.291443	27.546476
759.241760	30.295996
759.192200	33.044582
759.142578	52.311733
759.092957	46.797314
759.043335	33.027805
758.993713	33.022217
758.944092	24.762468
758.894470	27.509195
758.844849	33.005447
758.795227	16.499929
758.745667	27.495226
758.695984	21.992456
758.646362	41.228874
758.596741	35.725639
758.547058	30.224268
758.497437	13.735977
758.447815	35.707493
758.398193	38.447708
758.348511	32.949596
758.298889	38.434685
758.249268	27.448696
758.199646	32.932858
758.149963	32.927277
758.100281	43.895599
758.050659	35.659134
758.000977	38.395638
757.951355	30.162889
757.901672	32.899395
757.851990	19.188063
757.802368	35.628933
757.752686	49.324009
757.703003	27.397585
757.653320	30.132235
757.603699	30.127129
757.554016	10.953463
757.504333	35.592720
757.454651	35.586689
757.404968	27.369736
757.355286	30.101606
757.305603	30.096502
757.255920	32.826984
757.206238	43.761890
757.156616	21.877235
757.106873	38.278671
757.057190	24.603544
757.007446	32.799164
756.957764	24.595201
756.908081	21.858694
756.858398	19.123114
756.808716	21.851280
756.758972	38.233257
756.709290	35.496288
756.659607	19.110144
756.609924	27.295576
756.560120	32.749134
756.510437	32.743580
756.460693	32.738026
756.411072	46.371002
756.361328	40.908649
756.311584	38.174927
756.261902	46.347404
756.212097	24.532698
756.162415	46.331676
756.112671	32.699165
756.062927	35.418083
756.013184	35.412071
755.963501	27.235434
755.913757	13.615406
755.864014	24.503571
755.814270	21.777254
755.764587	16.330170
755.714844	35.376026
755.665100	27.207708
755.615356	38.084328
755.565552	54.396946
755.515808	40.790783
755.466064	29.908161
755.416321	21.747698
755.366577	27.180006
755.316833	21.740313
755.267029	32.604931
755.217285	27.166162
755.167542	24.445395
755.117737	32.588326
755.067993	43.443718
755.018188	29.862484
754.968445	29.857412
754.918701	32.566189
754.868896	24.420494
754.819092	29.842199
754.769348	35.262062
754.719543	35.256073
754.669739	37.961628
754.619995	24.399757
754.570190	40.659355
754.520386	48.782936
754.470642	27.097025
754.420837	35.220146
754.371033	29.796598
754.321228	40.624821
754.271484	21.662889
754.221619	59.562820
754.171875	29.776348
754.122070	46.010170
754.072205	35.178268
754.022400	27.055607
753.972595	32.461208
753.922852	29.751049
753.872986	48.675259
753.823181	37.852100
753.773376	24.329355
753.723572	27.028021
753.673706	29.725767
753.623901	40.528244
753.574097	32.417084
753.524292	29.710606
753.474426	29.705553
753.424561	35.100594
753.374756	37.794209
753.324951	40.486908
753.275085	18.890676
753.225281	43.171345
753.175415	29.675251
753.125610	43.156658
753.075745	53.936649
753.025879	32.356483
752.976074	32.350979
752.926208	37.736385
752.876343	40.424965
752.826477	13.472695
752.776672	35.023045
752.726807	24.242598
752.676941	32.317963
752.627075	26.927053
752.577209	29.614717
752.527344	34.993256
752.477539	34.987301
752.427673	18.836109
752.377808	32.284973
752.327881	29.589523
752.278015	32.273983
752.228149	24.201368
752.178284	48.394493
752.128357	37.633755
752.078491	34.939678
752.028625	24.184891
751.978760	40.301285
751.928833	37.608128
751.878967	24.172537
751.829102	40.280701
751.779175	26.849228
751.729309	37.582516
751.679382	24.156075
751.629456	32.202614
751.579590	45.612598
751.529663	34.874279
751.479797	32.186161
751.429871	21.453785
751.379944	21.450130
751.330078	34.850521
751.280212	48.246349
751.230225	26.798960
751.180298	40.191589
751.130371	32.147793
751.080505	42.856419
751.030579	40.171047
750.980652	29.453747
750.930725	34.803043
750.880859	34.797112
750.830872	45.496159
750.780945	40.136826
750.731018	48.155983
750.681091	40.123142
750.631165	34.767464
750.581177	32.087570
750.531311	45.449642
750.481384	64.153267
750.431396	37.416355
750.381409	48.098541
750.331482	61.448769
750.281616	48.082138
750.231628	34.720066
750.181641	34.714146
750.131714	40.047955
750.081787	37.371716
750.031799	32.027435
