#Wave		#Intensity
899.963257	72.274757
899.920715	58.723244
899.878235	31.615133
899.835815	63.220119
899.793274	54.179977
899.750793	63.199829
899.708252	63.189686
899.665771	76.718018
899.623230	81.217812
899.580688	58.647892
899.538208	72.170441
899.495667	63.139000
899.453186	63.128868
899.410645	72.135704
899.368103	27.046547
899.325623	58.591450
899.283020	58.582047
899.240540	90.111763
899.197998	76.582710
899.155396	49.545567
899.112854	76.558136
899.070312	72.043152
899.027771	76.533569
898.985229	40.511272
898.942688	67.507950
898.900085	49.497890
898.857544	76.484467
898.814941	62.977100
898.772400	53.971710
898.729797	40.472290
898.687256	67.442993
898.644714	76.423126
898.602112	71.916107
898.559570	44.940357
898.516907	49.426464
898.474304	49.418533
898.431763	62.886227
898.389221	62.876137
898.346558	44.904320
898.304016	53.876541
898.261353	49.378906
898.218750	49.370983
898.176147	98.726128
898.133606	71.789307
898.090942	62.805565
898.048340	62.795490
898.005676	89.693451
897.963074	58.291389
897.920471	58.282040
897.877808	35.860119
897.835205	58.263344
897.792542	94.102615
897.749939	53.764297
897.707275	76.153870
897.664673	76.141655
897.622009	89.564049
897.579346	53.729809
897.536743	67.151489
897.494080	44.760479
897.451477	49.228630
897.408752	53.695347
897.366089	71.582314
897.323425	107.356247
897.280823	76.031815
897.238098	62.604389
897.195435	62.594349
897.152710	62.584312
897.110046	80.452637
897.067383	62.564240
897.024719	80.426834
896.982056	80.413933
896.939331	62.534142
896.896667	53.592098
896.854004	71.444672
896.811279	62.504059
896.768555	66.957893
896.725830	44.631439
896.683167	71.398849
896.640442	53.540550
896.597778	53.531963
896.555054	53.523380
896.512268	102.570030
896.469604	93.635880
896.426880	93.620865
896.384094	53.489056
896.341431	93.590836
896.298706	62.383888
896.255920	44.552773
896.213257	40.091068
896.170532	44.538486
896.127747	57.890751
896.085022	62.333889
896.042236	40.065361
895.999512	31.156950
895.956787	57.853630
895.913940	88.991310
895.871216	35.590816
895.828430	71.170219
895.785767	48.921680
895.742981	62.253975
895.700195	48.905994
895.657410	71.124588
895.614624	66.668610
895.571838	57.770199
895.529114	84.419830
895.486267	88.848732
895.443481	48.858967
895.400757	57.733158
895.357910	84.365707
895.315125	62.154236
895.272339	93.216408
895.229553	79.886971
895.186768	53.249443
895.143921	57.677647
895.101135	70.976494
895.058350	84.271072
895.015442	106.430603
894.972656	35.471180
894.929871	39.898682
894.887024	66.487144
894.844238	75.340019
894.801392	75.327942
894.758545	79.746208
894.715698	57.585251
894.672913	17.715698
894.630066	61.995007
894.587219	79.695084
894.544373	61.975132
894.501526	57.539112
894.458679	44.253761
894.415894	70.794662
894.372986	66.359360
894.330078	57.502228
894.287292	97.295860
894.244446	48.640133
894.201538	75.159065
894.158691	53.044956
894.115845	57.456158
894.072876	75.122932
894.030029	88.365753
893.987183	44.175797
893.944275	83.920555
893.901428	75.074783
893.858521	52.985470
893.815552	70.635971
893.772766	110.351013
893.729858	35.306664
893.686951	57.364132
893.644043	66.178780
893.601135	52.934536
893.558167	110.262611
893.515320	70.556763
893.472412	74.954544
893.429504	70.534149
893.386536	57.299809
893.343689	57.290627
893.300720	48.468914
893.257812	88.111176
893.214844	57.263084
893.171936	83.678787
893.129028	57.244732
893.086060	88.054703
893.043091	96.844658
893.000183	74.822510
892.957275	101.214233
892.914307	70.398621
892.871338	61.588921
892.828430	101.165581
892.785461	92.353775
892.742493	79.147690
892.699524	92.324181
892.656555	61.539589
892.613525	65.924706
892.570618	96.674080
892.527649	61.510010
892.484619	87.857361
892.441711	87.843285
892.398682	122.960892
892.355652	92.205887
892.312744	65.850800
892.269775	87.786995
892.226746	92.161575
892.183777	74.595032
892.140686	78.970322
892.097717	100.890350
892.054749	83.330849
892.011719	65.776970
891.968750	56.997574
891.925720	92.058250
891.882751	74.511406
891.839722	74.499466
891.796692	52.579433
891.753662	61.332844
891.710632	78.843880
891.667603	91.969788
891.624573	96.333862
891.581482	87.562210
891.538513	96.303001
891.495422	74.404030
891.452454	74.392113
891.409363	105.007332
891.366272	104.990501
891.323242	104.973686
891.280273	69.971245
891.237122	65.587532
891.194092	87.436035
891.151062	118.019730
891.107971	78.667213
891.064880	100.503113
891.021851	61.166008
890.978760	91.734314
890.935730	91.719620
890.892639	78.604218
890.849548	109.155037
890.806458	87.310043
890.763367	113.484871
890.720276	78.553864
890.677185	61.087662
890.634155	78.528694
890.591003	74.154114
890.547913	74.142227
890.504761	91.572792
890.461731	78.478386
890.418579	65.388184
890.375488	65.377708
890.332336	74.082863
890.289246	78.428116
890.246155	95.841232
890.203003	82.758713
890.159912	104.520576
890.116760	78.377876
890.073669	78.365318
890.030457	56.588108
889.987366	108.805855
889.944214	78.327667
889.901062	52.210079
889.857910	91.353004
889.814758	104.386711
889.771606	73.928741
889.728516	121.745483
889.685364	82.599770
889.642212	104.319839
889.598999	86.919273
889.555908	99.941154
889.512695	69.513145
889.469543	86.877518
889.426392	65.147697
889.383240	86.849686
889.340027	91.177567
889.296875	99.845146
889.253723	91.148361
889.210449	99.813164
889.167297	86.780159
889.124146	65.074692
889.080933	69.401886
889.037781	99.749237
888.994507	121.414398
888.951294	104.052818
888.908081	73.692276
888.864868	86.682907
888.821716	91.002480
888.778503	51.993088
888.735291	95.305389
888.692078	121.278343
888.648804	90.944191
888.605652	99.589592
888.562378	90.915062
888.519226	90.900497
888.475952	90.885941
888.432739	73.562553
888.389465	77.877289
888.346252	103.819748
888.303040	69.202080
888.259766	95.137627
888.216492	112.417366
888.173279	95.107155
888.130066	103.736641
888.086731	99.398361
888.043457	77.777565
888.000244	90.725960
887.956970	95.031021
887.913696	82.059105
887.870483	107.955215
887.827209	73.397789
887.783936	56.118732
887.740601	82.006554
887.697327	107.886078
887.654053	86.295036
887.610779	69.024979
887.567505	94.894142
887.524231	103.504303
887.480957	81.927788
887.437622	51.735577
887.394348	99.143982
887.351074	99.128105
887.307739	137.895279
887.264404	116.330505
887.221130	77.541252
887.177734	94.757462
887.134460	94.742294
887.091125	86.115562
887.047852	116.237396
887.004517	86.087982
886.961182	86.074203
886.917908	86.060417
886.874573	73.139641
886.831238	86.032860
886.787842	103.222900
886.744568	77.404778
886.701172	120.388145
886.657837	77.379990
886.614502	73.069397
886.571167	94.545258
886.527832	98.826942
886.484436	98.811119
886.441101	90.204399
886.397766	111.663750
886.354370	103.057732
886.310974	55.813999
886.267639	68.683151
886.224304	120.176270
886.180908	111.574379
886.137451	102.975250
886.094177	85.798965
886.050781	124.388580
886.007385	94.348640
885.963989	81.469872
885.920593	107.180031
885.877197	120.022415
885.833862	85.716568
885.790405	85.702843
885.747009	98.542496
885.703613	111.378021
885.660217	81.378601
885.616821	115.624756
885.573364	77.070831
885.529968	107.025681
885.486511	128.410248
885.443115	106.991409
885.399719	141.206055
885.356323	102.678871
885.312805	98.384827
885.269409	128.307495
885.225952	153.944336
885.182556	106.888672
885.139099	111.146416
885.095642	98.306091
885.052185	111.110832
885.008728	85.456184
884.965332	98.258881
884.921875	115.328911
884.878418	123.851959
884.835022	136.642349
884.791504	111.004135
884.748108	123.792480
884.704590	110.968597
884.661072	85.346794
884.617615	85.333130
884.574219	115.181282
884.530762	119.428131
884.487244	93.821365
884.443726	89.542419
884.400269	81.001595
884.356812	132.139343
884.313232	102.285049
884.269836	106.529869
884.226257	102.252296
884.182739	115.015419
884.139343	89.442116
884.095825	93.686264
884.052307	85.155693
884.008789	144.741501
883.965332	93.641273
883.921753	102.137764
883.878235	106.376472
883.834717	106.359436
883.791199	123.357201
883.747681	114.831421
883.704163	89.299026
883.660645	123.297958
883.617126	114.776276
883.573547	59.504097
883.530029	89.241852
883.486511	89.227570
883.442932	135.944046
883.399414	97.694145
883.355896	101.925392
883.312317	84.924232
883.268738	93.401703
883.225220	93.386749
883.181641	101.860146
883.138062	131.548294
883.094482	114.555969
883.050964	106.053368
883.007385	114.519295
882.963745	89.056305
882.920227	89.042046
882.876648	114.464310
882.833069	114.445984
882.789429	88.999290
882.745911	93.222427
882.702332	131.337845
882.658691	93.192581
882.615112	122.825104
882.571533	105.866760
882.527954	131.253769
882.484314	143.932693
882.440735	110.048561
882.397156	143.886612
882.353516	131.169739
882.309875	139.609955
882.266296	101.518257
882.222656	84.585007
882.179016	97.257179
882.135437	88.785820
882.091797	88.771606
882.048218	131.022827
882.004517	118.324249
881.960876	84.503792
881.917236	101.388321
881.873657	135.162781
881.829956	97.132698
881.786316	135.119507
881.742737	105.545219
881.699036	122.412857
881.655396	84.409149
881.611694	143.472580
881.568054	118.134972
881.524414	122.334496
881.480774	126.532661
881.437073	134.946564
881.393372	122.275749
881.349731	139.119095
881.306091	143.311890
881.262390	88.501991
881.218689	80.060417
881.174988	117.964882
881.131348	109.521286
881.087646	101.080391
881.044006	130.541275
881.000244	84.206688
880.956604	79.983551
880.912903	84.179733
880.869141	117.832764
880.825500	88.360428
880.781799	92.553246
880.738098	113.569893
880.694397	147.196671
880.650574	88.303864
880.606934	105.106819
880.563232	121.904388
880.519470	117.681946
880.475769	96.651840
880.432007	113.442696
880.388306	121.826355
880.344604	113.406380
880.300842	92.390404
880.257080	83.977837
880.213379	121.748367
880.169617	104.938690
880.125854	134.300018
880.082092	146.867126
880.038391	109.083832
879.994629	113.261230
879.950867	71.301216
879.907104	109.031456
879.863342	104.821159
879.819580	100.612206
879.775818	125.745125
879.732056	71.244164
879.688293	92.183571
879.644531	96.358307
879.600708	92.154060
879.556946	96.327461
879.513123	100.499519
879.469299	87.923004
879.425598	75.350510
879.381775	79.523918
879.338013	112.989586
879.294189	108.787369
879.250427	121.320335
879.206604	75.290222
879.162781	117.099380
879.119019	91.991928
879.075134	87.796417
879.031372	125.403381
878.987549	91.947754
878.943726	121.184456
878.899963	83.562111
878.856140	91.903610
878.812317	116.949509
878.768433	108.578583
878.724609	87.684052
878.680786	121.068115
878.636963	70.959602
878.593079	70.948242
878.549255	83.455162
878.505432	66.753441
878.461609	87.599869
878.417725	83.415092
878.373840	112.592346
878.330017	75.049553
878.286194	83.375038
878.242310	75.025528
878.198425	83.348351
878.154602	91.668510
878.110718	87.487755
878.066895	87.473747
878.022949	70.800743
877.979065	79.117577
877.935181	83.268333
877.891296	116.557007
877.847473	41.620838
877.803589	91.551186
877.759705	83.215027
877.715759	87.361794
877.671936	87.347809
877.627991	54.063797
877.584106	74.845581
877.540222	91.463295
877.496277	112.232437
877.452393	66.497459
877.408447	70.642242
877.364563	58.166653
877.320679	103.852394
877.276672	95.528915
877.232788	78.902557
877.188904	74.737823
877.144958	78.877296
877.101013	116.221619
877.057068	62.251614
877.013184	82.988869
876.969238	82.975586
876.925354	66.369843
876.881348	78.801567
876.837402	116.110039
876.793457	87.068588
876.749512	74.618271
876.705566	103.619904
876.661560	87.026779
876.617676	45.578159
876.573730	66.284897
876.529724	103.553566
876.485779	91.112549
876.441833	74.534698
876.397888	82.803078
876.353821	95.208298
876.309875	70.360085
876.265869	66.210655
876.221924	86.887573
876.177917	103.421028
876.133972	78.587402
876.089966	62.032753
876.046021	99.236511
876.002014	86.818054
875.958008	95.071213
875.913940	70.258781
875.869995	74.379738
875.825989	74.367836
875.781982	57.832390
875.737976	70.213799
875.693970	49.554749
875.649902	103.222534
875.605896	86.693047
875.561890	86.679169
875.517883	78.411461
875.473877	78.398903
875.429810	94.888748
875.385864	94.873558
875.341736	53.615601
875.297791	49.483398
875.253723	70.090263
875.209656	94.812820
875.165588	78.311096
875.121521	61.814651
875.077454	94.767296
875.033447	37.076916
874.989380	86.498955
874.945374	102.958466
874.901306	70.000549
874.857239	69.989342
874.813110	74.094498
874.769104	61.735531
874.725037	86.415909
874.680969	65.830154
874.636841	57.592159
874.592773	69.922142
874.548706	78.135765
874.504639	86.346756
874.460571	61.666382
874.416443	78.098244
874.372437	82.195518
874.328308	106.837067
874.284180	90.386124
874.240051	69.832642
874.196045	65.714317
874.151917	86.236237
874.107788	69.799110
874.063660	45.156898
874.019531	77.985794
873.975464	98.492599
873.931335	94.373634
873.887207	77.948341
873.843079	86.139641
873.798950	82.024620
873.754822	90.212639
873.710754	102.497948
873.666565	86.084496
873.622437	61.479080
873.578308	81.958984
873.534180	81.945862
873.489990	73.739464
873.445862	86.015602
873.401672	98.287811
873.357605	73.704056
873.313416	81.880287
873.269287	85.960533
873.225098	94.132179
873.180969	106.393250
873.136780	81.827858
873.092590	89.996239
873.048462	89.981827
873.004272	77.699135
872.960083	65.420380
872.915894	81.762375
872.871765	98.099144
872.827576	77.649391
872.783386	102.153893
872.739197	69.453522
872.695007	57.187862
872.650818	81.683868
872.606567	81.670792
872.562439	102.072144
872.518188	85.726868
872.474060	89.794724
872.429810	89.780350
872.385559	69.364616
872.341370	97.910835
872.297241	53.026546
872.252930	65.252991
872.208740	81.553177
872.164551	77.463120
872.120361	85.603416
872.076050	93.741112
872.031860	81.500961
871.987610	105.934288
871.943359	101.843582
871.899109	93.681091
871.854919	73.303902
871.810608	118.081818
871.766418	52.924751
871.722168	77.339180
871.677917	81.396622
871.633667	85.452774
871.589417	73.233505
871.545166	69.153900
871.500916	89.478958
871.456665	56.932037
871.412354	77.252533
871.368103	60.979080
871.323853	130.067871
871.279602	65.023521
871.235229	81.266388
871.190979	85.316048
871.146790	52.806236
871.102417	97.472832
871.058105	85.275070
871.013916	64.961075
870.969604	85.247765
870.925293	93.351646
870.880981	64.929878
870.836731	81.149345
870.792419	77.079536
870.748047	101.404205
870.703796	109.499001
870.659485	105.426598
870.615173	105.409721
870.570862	52.696419
870.526550	60.793823
870.482178	93.202271
870.437866	93.187347
870.393555	97.223396
870.349243	60.754894
870.304932	89.092911
870.260559	72.882523
870.216248	76.919235
870.171875	93.097847
870.127563	84.988770
870.083252	76.882286
870.038879	40.457882
869.994507	80.902809
869.950195	84.934341
869.905823	117.271500
869.861511	52.561565
869.817078	76.808449
869.772766	84.879951
869.728394	64.660080
869.684021	72.730942
869.639648	80.799217
869.595276	76.746964
869.550903	72.696007
869.506531	80.760406
869.462158	40.373737
869.417786	68.624359
869.373413	68.613373
869.328979	56.496078
869.284607	68.591393
869.240234	68.580414
869.195862	40.334957
869.151428	68.558449
869.107056	56.450855
869.062622	56.441814
869.018250	72.556427
868.973877	72.544807
868.929443	56.414700
868.885010	60.434643
868.840637	64.453293
868.796143	44.304543
868.751770	72.486732
868.707336	44.290352
868.662903	76.489265
868.618469	44.276165
868.574036	72.440308
868.529663	40.238167
868.485229	100.579308
868.440735	76.428032
868.396301	64.350143
868.351868	68.361076
868.307434	48.247147
868.263000	52.259369
868.218506	88.424767
868.174072	60.279961
868.129578	44.198223
868.085144	48.208523
868.040710	72.301201
867.996277	44.176991
867.951721	100.386169
867.907288	76.281265
867.862793	92.325691
867.818359	48.162209
867.773865	48.154495
867.729370	92.281334
867.684937	56.162251
867.640442	40.109467
867.595947	24.061825
867.551514	60.144928
867.506958	64.144310
867.462463	56.117283
867.417969	48.092823
867.373535	44.078026
867.328979	76.122581
867.284485	72.104576
867.239929	56.072353
867.195435	52.058846
867.150940	68.066048
867.106445	88.071365
867.061890	76.049446
867.017395	68.033340
866.972839	48.015842
866.928345	68.011551
866.883789	52.000500
866.839294	47.992771
866.794739	63.980110
866.750183	43.979279
866.705688	63.959614
866.661133	47.962025
866.616638	71.931511
866.572021	59.933327
866.527527	75.903381
866.482910	71.896950
866.438416	63.898163
866.393860	47.915943
866.349304	51.900623
866.304749	51.892311
866.260193	39.910767
866.215637	63.846996
866.171021	47.877575
866.126465	39.891586
866.081909	63.816315
866.037292	87.733376
865.992676	67.783112
865.948181	59.799046
865.903564	79.719284
865.859009	79.706512
865.814392	39.846874
865.769836	55.776684
865.725159	59.751160
865.680603	71.689903
865.635986	63.714149
865.591431	79.629929
865.546753	67.674591
865.502197	83.584633
865.457581	55.714161
865.412964	75.599960
865.368347	67.631233
865.323792	63.642723
865.279114	75.563629
865.234497	55.669540
865.189880	59.636379
865.145264	47.701458
865.100647	79.489693
865.055969	51.660023
865.011353	71.517799
864.966675	51.643471
864.922058	67.522949
864.877441	47.655621
864.832825	63.530643
864.788147	79.400581
864.743469	55.571499
864.698853	47.625080
864.654175	67.458054
864.609497	51.577305
864.564880	55.535889
864.520203	55.526993
864.475586	31.724625
864.430908	55.509197
864.386169	31.714458
864.341492	59.455082
864.296875	51.519478
864.252136	43.586422
864.207520	67.350037
864.162781	63.378113
864.118103	55.446960
864.073425	79.197250
864.028687	67.306877
863.984009	75.213280
863.939331	63.327347
863.894653	47.487900
863.849976	71.220428
863.805237	67.252960
863.760559	39.554226
863.715820	47.457466
863.671143	59.312325
863.626404	67.209862
863.581665	63.246201
863.536987	47.427048
863.492249	67.177551
863.447571	71.117775
863.402832	59.255314
863.358093	63.195538
863.313354	78.981758
863.268616	35.536095
863.223877	43.426044
863.179138	71.049416
863.134338	63.144913
863.089600	47.351093
863.044861	51.288795
863.000183	35.501938
862.955444	78.880547
862.910645	39.433952
862.865906	27.599342
862.821106	63.074100
862.776367	67.005493
862.731628	63.053883
862.686890	74.864487
862.642090	66.973274
862.597290	66.962540
862.552490	74.828491
862.507751	47.252525
862.463013	43.307873
862.418213	62.983170
862.373352	47.229805
862.328613	59.027794
862.283813	47.214664
862.239014	55.074947
862.194275	70.799294
862.149475	78.653275
862.104675	70.776596
862.059814	51.108238
862.015076	51.100044
861.970215	66.812424
861.925415	39.295128
861.880615	62.862122
861.835754	74.636803
861.790955	54.986725
861.746155	94.247841
861.701294	62.821823
861.656494	47.108814
861.611694	35.325947
861.566833	47.093712
861.522034	74.553085
861.477173	78.464355
861.432373	70.606598
861.387512	66.673317
861.342651	54.898636
861.297852	58.810535
861.252991	62.721184
861.208130	97.986137
861.163269	50.944622
861.118408	50.936455
861.073608	39.175606
861.028687	43.086258
860.983826	66.577179
860.938965	46.988117
860.894165	62.640781
860.849243	70.459579
860.804382	43.051727
860.759460	54.784321
860.714600	66.513153
860.669739	62.590576
860.624817	66.491829
860.580017	58.659851
860.535095	27.370209
860.490173	58.641041
860.445251	54.722862
860.400391	50.805939
860.355469	54.705315
860.310608	74.231026
860.265686	66.406578
860.220764	31.245144
860.175903	50.765217
860.130920	70.279030
860.086060	70.267761
860.041138	31.225107
859.996216	74.147743
859.951294	35.116982
859.906372	46.815132
859.861450	62.410168
859.816467	74.100189
859.771606	46.792614
859.726685	62.380146
859.681702	70.166412
859.636780	77.950180
859.591858	50.659489
859.546936	58.443882
859.501953	85.703949
859.457031	66.215157
859.412109	54.521385
859.367065	58.406399
859.322144	77.862709
859.277161	73.957710
859.232239	66.162079
859.187256	105.064095
859.142273	54.468941
859.097290	81.690308
859.052429	54.451469
859.007385	85.552872
858.962402	62.210289
858.917419	50.537754
858.872498	69.964127
858.827454	62.180359
858.782532	66.056038
858.737488	77.700516
858.692505	66.034851
858.647522	50.489136
858.602478	54.364197
858.557495	66.003075
858.512512	77.638222
858.467529	38.812885
858.422485	46.567989
858.377502	65.960739
858.332458	38.794209
858.287537	73.697174
858.242493	89.198059
858.197449	50.408207
858.152405	85.292511
858.107422	65.897278
858.062378	65.886703
858.017334	46.500801
857.972290	50.367786
857.927307	54.233532
857.882263	50.351627
857.837219	92.941940
857.792236	77.439194
857.747131	54.198738
857.702087	92.897217
857.657043	69.661736
857.611938	61.911606
857.566956	54.163967
857.521912	69.628212
857.476807	85.087494
857.431763	88.940834
857.386719	50.262840
857.341614	69.583542
857.296570	85.032898
857.251465	46.374142
857.206421	73.413940
857.161316	96.581795
857.116272	84.978340
857.071167	46.344387
857.026123	42.475536
856.981018	77.215858
856.935974	54.042427
856.890869	42.455093
856.845764	61.742954
856.800659	57.874733
856.755554	81.011627
856.710510	84.855705
856.665344	84.842087
856.620239	65.549271
856.575134	80.959641
856.530029	73.237442
856.484924	65.517723
856.439758	61.653843
856.394653	53.938457
856.349548	65.486183
856.304443	42.366615
856.259338	57.763386
856.214233	50.053566
856.169006	61.594501
856.123962	57.735580
856.078796	80.816841
856.033630	57.717049
855.988525	57.707787
855.943420	76.931366
855.898254	92.302826
855.853027	84.597343
855.807922	53.826031
855.762756	84.570190
855.717590	84.556618
855.672485	84.543045
855.627258	73.002731
855.582153	80.674278
855.536987	84.502342
855.491821	61.446384
855.446655	61.436523
855.401489	99.818329
855.356262	80.609550
855.311096	80.596619
855.265930	49.885136
855.220764	46.040424
855.175537	69.049553
855.130371	65.202995
855.085205	65.192528
855.039978	92.021744
854.994812	42.169861
854.949646	34.497074
854.904358	61.318287
854.859192	57.476665
854.814026	53.636276
854.768799	76.610954
854.723511	45.959194
854.678406	80.415672
854.633179	42.115734
854.587952	38.280884
854.542725	65.067055
854.497498	76.537186
854.452209	61.219921
854.407043	45.907570
854.361755	57.375248
854.316589	53.541634
854.271301	68.828194
854.226074	42.054920
854.180908	80.273773
854.135681	61.151154
854.090332	57.320000
854.045105	76.414398
853.999878	68.761917
853.954651	57.292397
853.909363	87.834236
853.864136	61.092266
853.818848	64.900108
853.773621	95.426010
853.728333	41.980701
853.683044	61.053036
853.637817	72.488838
853.592529	64.848022
853.547241	41.953747
853.501953	68.640556
853.456726	83.880547
853.411438	76.242798
853.366089	72.419022
853.320801	64.785561
853.275513	72.395767
853.230225	49.525993
853.184937	68.563438
853.139648	87.594765
853.094421	68.541420
853.049072	76.144897
853.003784	57.099503
852.958435	60.896355
852.913147	30.443287
852.867859	83.705597
852.822571	91.300529
852.777222	60.857243
852.731873	110.286041
852.686584	57.035339
852.641296	45.620945
852.595886	60.818157
852.550598	91.212578
852.505249	91.197929
852.459900	79.785370
852.414551	75.973862
852.369263	75.961662
852.323914	68.354515
852.278564	30.374903
852.233215	87.313820
852.187927	75.912865
852.142517	72.105637
852.097168	60.710781
852.051819	60.701031
852.006470	53.104870
851.961121	53.096340
851.915771	75.839729
851.870361	72.036163
851.825012	64.443062
851.779602	79.593346
851.734253	68.211906
851.688843	94.723534
851.643555	79.554985
851.598145	71.966759
851.552734	90.890778
851.507324	75.730141
851.461975	79.503876
851.416565	83.276390
851.371216	87.047699
851.325806	64.329262
851.280396	75.669327
851.235046	52.960018
851.189636	56.733761
851.144165	71.851219
851.098755	79.401741
851.053345	64.267273
851.007935	64.256950
850.962524	83.142685
850.917175	56.679089
850.871765	71.781975
850.826294	94.434792
850.780945	60.428555
850.735474	45.314133
850.690002	83.062561
850.644592	64.174393
850.599182	60.389721
850.553711	83.022522
850.508301	90.555466
850.462891	67.905685
850.417419	49.035114
850.372009	79.197838
850.326538	82.955833
850.281067	64.091934
850.235657	60.312122
850.190186	71.609138
850.144714	71.597626
850.099182	71.586121
850.053772	56.506275
850.008301	64.030151
849.962830	120.507973
849.917358	86.601189
849.871887	101.645920
849.826355	75.281174
849.780945	86.559433
849.735474	86.545517
849.690002	56.433659
849.644470	78.994423
849.598999	48.893448
849.553528	82.729462
849.507996	105.275116
849.462524	105.258194
849.417053	71.413719
849.371521	101.466339
849.325989	93.935211
849.280518	52.595264
849.234985	82.636414
849.189514	86.378723
849.143982	78.854851
849.098450	71.333397
849.052979	97.598427
849.007446	93.829559
848.961914	71.298996
848.916443	67.535561
848.870911	78.778816
848.825378	78.766151
848.779846	105.004654
848.734253	78.740829
848.688721	86.226089
848.643250	101.205658
848.597656	44.973061
848.552124	41.218674
848.506592	93.663742
848.461060	82.410843
848.415466	119.851044
848.369934	78.639603
848.324341	104.835938
848.278809	93.588463
848.233276	78.601669
848.187683	78.589027
848.142151	71.092926
848.096558	44.893578
848.050964	74.810593
848.005371	63.578781
847.959839	93.483170
847.914246	89.729408
847.868652	97.191231
847.823120	74.750458
847.777466	97.159973
847.731934	108.353310
847.686340	100.864441
847.640747	78.437500
847.595093	41.079704
847.549500	78.412277
847.503906	67.199715
847.458313	70.921623
847.412720	111.963493
847.367188	85.824875
847.321533	67.156487
847.275879	63.415371
847.230286	82.053749
847.184692	89.498787
847.139038	63.384773
847.093445	48.462914
847.047791	104.364868
847.002197	104.348083
846.956543	100.605179
846.910950	74.510368
846.865356	74.498383
846.819641	96.832314
846.773987	74.474411
846.728333	85.631798
846.682739	89.340546
846.637085	78.160400
846.591431	78.147827
846.545776	85.576706
846.500183	81.842812
846.454468	78.110115
846.408813	70.659683
846.363159	63.211651
846.317505	107.814293
846.271851	44.605633
846.226135	104.063065
846.180481	115.194138
846.134827	89.168213
846.089172	96.583351
846.043457	92.853661
845.997803	107.692917
845.952148	77.971977
845.906433	85.384140
845.860718	77.946892
845.815002	81.645508
845.769348	74.211243
845.723633	66.779373
845.677979	96.443565
845.632324	85.301735
845.586548	59.330788
845.540894	88.981857
845.495178	126.037346
845.449463	88.953224
845.403748	66.704178
845.358032	92.629784
845.312317	70.387306
845.266602	66.671982
845.220886	107.398674
845.175110	107.381393
845.129456	125.875160
845.083679	92.540367
845.037964	125.834648
844.992249	107.312271
844.946533	107.294998
844.900818	133.172363
844.854980	92.465919
844.809265	118.337326
844.763550	99.831047
844.717773	88.724419
844.672058	85.013885
844.626282	99.782845
844.580505	81.291451
844.534729	110.834129
844.489014	96.040787
844.443237	84.945480
844.397522	92.317177
844.351746	81.226036
844.305969	59.063972
844.260193	73.818077
844.214417	99.638359
844.168640	81.173744
844.122803	95.917160
844.077087	84.836136
844.031250	103.262146
843.985474	110.620193
843.939697	125.349373
843.893982	95.839966
843.848145	114.252335
843.802368	114.233932
843.756531	106.846794
843.710754	136.299820
843.664917	110.495575
843.619141	103.112595
843.573303	139.915985
843.527527	103.079391
843.481689	95.701164
843.435913	110.406639
843.390137	103.029602
843.344299	91.975899
843.298462	102.996422
843.252625	106.657684
843.206787	106.640511
843.160950	84.563332
843.115112	95.577934
843.069336	95.562546
843.023438	99.222046
842.977661	121.251854
842.931763	132.253448
842.885986	77.135422
842.840088	95.485611
842.794250	110.157959
842.748413	110.140221
842.702576	106.451729
842.656677	117.445053
842.610840	128.434830
842.565002	95.393364
842.519104	117.388306
842.473206	106.366020
842.427429	77.011261
842.381531	124.664810
842.335632	91.650536
842.289795	109.962929
842.243835	120.939735
842.197998	95.270500
842.152161	113.573448
842.106262	87.913666
842.060303	113.536858
842.014465	117.180458
841.968567	102.516380
841.922668	84.196312
841.876770	117.123825
841.830933	98.807304
841.784973	91.473503
841.739075	109.750519
841.693237	113.390594
841.647278	135.315353
841.601318	102.384308
841.555420	109.679802
841.509521	106.006721
841.463562	80.405937
841.417664	124.243690
841.371765	102.301849
841.325867	113.244507
841.279907	105.921341
841.234009	116.859886
841.188049	131.446182
841.142090	83.965973
841.096130	105.853073
841.050232	113.135048
841.004272	124.063606
840.958374	127.691956
840.912415	127.671371
840.866455	116.709297
840.820496	105.750755
840.774536	123.963661
840.728638	72.908051
840.682678	112.989258
840.636719	120.259499
840.590759	134.814682
840.544800	105.648521
840.498779	134.771210
840.452820	127.465736
840.406799	91.032280
840.360901	127.424644
840.314880	138.324463
840.268921	123.744034
840.222900	145.557755
840.176941	116.427429
840.130981	123.684196
840.084961	112.752708
840.039001	120.007721
839.992981	109.080345
839.947021	112.698181
839.901001	119.949692
839.854980	79.953568
839.808960	119.911011
839.763000	130.790924
839.716980	98.077377
839.670959	141.644485
839.625000	90.783104
839.578918	123.445114
839.532959	134.315659
839.486877	101.627899
839.440857	127.014389
839.394836	123.365509
839.348816	108.834366
839.302795	116.071266
839.256775	137.812408
839.210754	130.538071
839.164673	145.018906
839.118652	152.245300
839.072571	126.850616
839.026611	148.572464
838.980530	105.070900
838.934509	144.902008
838.888428	126.768806
838.842407	141.233887
838.796265	152.073502
838.750244	159.289398
838.704224	148.404816
838.658142	133.904694
838.612061	112.172325
838.566040	123.007866
838.519958	104.901550
838.473877	144.668457
838.427734	90.403198
838.381714	115.697426
838.335632	148.213409
838.289551	137.346375
838.243469	108.413849
838.197388	140.915268
838.151245	162.568314
838.105225	158.930038
838.059143	130.012695
838.013000	115.548187
837.966919	151.632538
837.920837	108.291473
837.874695	140.756210
837.828613	129.907837
837.782471	155.142670
837.736450	129.865921
837.690308	140.665390
837.644165	151.461349
837.598083	158.648193
837.551880	129.782120
837.505798	158.597000
837.459717	100.909081
837.413513	140.529251
837.367432	151.314774
837.321289	151.290359
837.275146	140.461227
837.229004	144.039551
837.182861	111.612633
837.136780	118.794273
837.090637	140.370575
837.044434	129.551926
836.998352	147.521439
836.952148	176.277649
836.906006	129.489212
836.859863	136.660995
836.813721	179.788071
836.767578	143.807251
836.721375	150.973236
836.675171	147.354843
836.629028	143.737610
836.582825	183.235886
836.536743	132.914383
836.490540	190.360123
836.444336	154.418198
836.398132	129.259476
836.351990	161.548264
836.305786	118.449600
836.259644	172.262512
836.213440	139.940689
836.167236	143.505753
836.121094	157.830841
836.074890	147.045898
836.028625	143.436249
835.982422	150.583755
835.936218	154.144180
835.890076	125.445938
835.843872	161.261597
835.797668	146.903503
835.751404	128.967621
835.705261	139.692352
835.658997	171.901291
835.612793	168.292831
835.566528	153.945175
835.520325	139.602142
835.474121	164.632355
835.427856	186.076080
835.381653	139.534531
835.335388	182.438751
835.289185	160.949371
835.242920	164.499466
835.196716	182.350388
835.150513	153.721573
835.104248	182.291489
835.057922	171.540741
835.011719	153.647095
834.965454	200.066223
834.919250	164.313568
834.872986	175.001404
834.826660	182.114899
834.780457	185.655777
834.734192	149.928528
834.687927	171.319199
834.641663	174.860107
834.595398	153.423874
834.549072	156.966507
834.502869	156.941147
834.456543	224.674896
834.410278	174.718903
834.364014	185.386032
834.317688	163.968842
834.271423	171.070282
834.225159	185.296188
834.178833	213.768753
834.132568	217.296448
834.086243	156.713104
834.039978	224.348404
833.993652	202.949097
833.947388	220.715973
833.901062	199.324158
833.854736	188.615585
833.808472	192.143326
833.762146	184.997009
833.715820	170.738876
833.669495	206.276123
833.623169	188.463242
833.576843	223.986145
833.530518	202.621384
833.484192	202.588638
833.437866	177.680603
833.391541	202.523148
833.345215	149.203461
833.298889	156.283127
833.252563	181.117081
833.206177	191.740036
833.159851	177.508362
833.113525	191.678055
833.067200	188.098053
833.020813	227.100555
832.974487	209.324478
832.928101	184.459549
832.881775	180.883011
832.835388	216.315292
832.789062	209.189163
832.742676	209.155350
832.696289	173.677200
832.649963	187.824570
832.603577	212.597214
832.557190	226.733688
832.510803	208.986328
832.464417	219.577240
832.418091	230.164734
832.371643	184.102020
832.325317	173.452698
832.278870	187.581772
832.232483	205.244965
832.186096	226.440582
832.139709	237.016647
832.093323	222.830368
832.046936	222.794342
832.000549	215.686615
831.954102	187.369537
831.907776	190.873947
831.861328	247.389175
831.814880	222.614243
831.768494	166.050430
831.722046	222.542252
831.675659	229.569946
831.629272	222.470276
831.582825	229.495697
831.536438	211.807922
831.489929	264.717072
831.443542	197.623444
831.397156	225.818832
831.350708	236.365860
831.304260	190.473007
831.257812	186.915497
831.211365	229.198898
831.164917	200.957291
831.118530	190.349792
831.072021	207.941132
831.025574	222.002914
830.979065	204.350571
830.932678	204.317505
830.886169	228.939484
830.839722	225.380859
830.793274	249.991440
830.746826	239.389679
830.700378	214.711884
830.653931	267.466614
830.607422	263.904602
830.560974	242.752945
830.514465	225.125717
830.468018	211.021210
830.421509	246.151581
830.375061	277.754700
830.328552	210.918793
830.282043	260.091095
830.235535	221.393066
830.189087	260.006897
830.142578	214.295334
830.096130	235.335464
830.049622	221.249786
830.003113	242.281967
829.956543	252.775055
829.910095	228.162766
829.863525	235.145096
829.817078	214.052673
829.770569	242.085968
829.723999	263.094330
829.677490	259.544373
829.630981	210.407333
829.584473	245.435486
829.537964	238.384445
829.491455	238.345856
829.444885	259.334381
829.398376	259.292419
829.351868	266.257202
829.305298	266.214081
829.258789	266.170990
829.212219	259.124542
829.165710	283.590393
829.119141	290.545593
829.072571	265.998657
829.026001	251.957932
828.979492	272.910248
828.932922	269.367767
828.886353	241.342422
828.839783	248.297638
828.793274	237.767685
828.746704	213.257065
828.700134	234.195236
828.653564	286.580597
828.606995	307.500092
828.560425	262.031494
828.513794	265.482269
828.467285	272.424500
828.420715	261.904236
828.374146	275.827759
828.327515	314.183258
828.280945	293.190216
828.234375	286.163147
828.187744	359.390625
828.141113	307.002441
828.094604	282.536041
828.047974	310.390533
828.001404	292.905426
827.954773	317.262787
827.908142	292.810516
827.861572	313.674744
827.814941	289.230957
827.768311	289.184113
827.721680	344.874573
827.675110	348.301697
827.628479	261.183960
827.581909	323.815643
827.535278	268.061981
827.488586	313.268433
827.441956	274.935516
827.395386	260.972443
827.348694	316.595276
827.302063	288.715912
827.255493	351.272095
827.208862	344.260406
827.162170	319.866943
827.115540	337.196350
827.068848	361.471527
827.022217	344.037323
826.975647	350.930695
826.928955	357.821838
826.882263	371.657593
826.835571	340.341492
826.789001	305.563232
826.742249	343.702942
826.695618	326.291321
826.648987	374.827118
826.602295	322.715485
826.555603	298.376709
826.508972	326.079803
826.462280	326.026978
826.415588	357.184418
826.368896	336.323029
826.322266	315.468384
826.275574	367.409119
826.228882	374.280670
826.182190	367.290009
826.135498	342.979401
826.088806	339.459900
826.042053	318.624969
825.995361	328.961578
825.948669	405.076477
825.901978	439.627106
825.855286	404.945129
825.808594	380.655914
825.761841	356.374573
825.715149	373.613708
825.668396	377.011963
825.621765	356.201233
825.575012	376.889709
825.528320	380.285736
825.481567	380.224060
825.434814	400.898529
825.388123	376.645294
825.341370	418.043030
825.294617	359.251434
825.247864	400.638550
825.201172	417.839661
825.154419	403.961273
825.107727	383.183136
825.060974	403.830231
825.014160	403.764740
824.967468	372.645447
824.920654	393.284180
824.873962	393.220398
824.827148	382.810394
824.780396	396.541016
824.733643	441.295807
824.686890	403.306488
824.640137	448.045654
824.593384	475.540527
824.546631	423.782562
824.499817	430.603485
824.453003	451.199219
824.406311	468.344574
824.359497	461.382294
824.312744	478.520386
824.265930	423.370209
824.219177	447.391846
824.172302	461.082916
824.125549	447.246674
824.078735	481.572113
824.031982	433.344574
823.985168	457.345032
823.938354	429.765808
823.891541	436.571198
823.844788	453.685425
823.797974	429.556610
823.751221	518.820190
823.704346	477.511932
823.657532	518.651794
823.610718	467.054260
823.563904	466.978455
823.517090	456.603363
823.470276	470.259430
823.423462	555.982971
823.376648	500.989716
823.329773	497.477509
823.282959	504.257416
823.236084	425.290955
823.189331	531.527405
823.142456	541.727051
823.095642	486.789581
823.048767	462.717773
823.001953	462.642670
822.955017	459.141113
822.908203	517.306396
822.861328	500.095825
822.814514	506.864136
822.767639	517.054443
822.720764	472.463104
822.673950	462.117126
822.627075	482.577301
822.580200	526.984619
822.533386	496.106262
822.486450	561.022156
822.439636	560.931091
822.392700	574.518982
822.345825	523.137695
822.298950	533.308655
822.252075	536.640137
822.205200	560.475769
822.158325	567.218689
822.111450	621.789368
822.064514	560.202698
822.017639	573.772949
821.970764	566.850281
821.923828	604.314453
821.876953	559.838806
821.830078	539.269287
821.783142	522.119019
821.736267	515.210205
821.689331	569.709473
821.642456	573.027771
821.595520	501.317871
821.548584	538.743896
821.501648	542.065613
821.454712	528.342896
821.407837	596.419250
821.360901	589.507202
821.314026	596.225464
821.267029	589.315674
821.220154	599.437622
821.173157	585.718811
821.126221	578.814087
821.079285	561.698853
821.032349	636.488586
820.985413	660.207092
820.938477	656.697205
820.891541	598.756104
820.844604	591.855835
820.797668	625.768860
820.750671	615.466064
820.703735	618.765808
820.656738	591.471191
820.609802	615.166016
820.562866	611.667847
820.515930	601.375610
820.468933	631.851318
820.421997	641.938110
820.375000	611.270264
820.328003	611.170898
820.281006	672.178711
820.234009	678.858032
820.187073	644.810303
820.140076	705.782837
820.093140	698.882812
820.046082	647.887939
819.999146	783.443848
819.952148	708.714905
819.905090	715.380554
819.858093	759.332642
819.811096	745.651917
819.764099	684.532715
819.717163	738.632996
819.670105	762.226562
819.623108	772.264038
819.576111	745.045837
819.529114	721.222534
819.482117	731.261658
819.435059	700.678467
819.388062	734.408203
819.341064	754.591675
819.294006	761.235535
819.247009	767.877136
819.199951	723.784058
819.152954	777.772217
819.105896	733.691833
819.058838	818.085449
819.011841	746.973083
818.964783	756.989807
818.917725	804.170837
818.870667	841.201538
818.823669	807.286987
818.776611	851.059570
818.729553	807.024353
818.682434	806.893066
818.635376	897.902283
818.588379	823.505676
818.541321	840.244080
818.494263	904.211914
818.447144	904.064819
818.400146	873.562256
818.353027	826.208252
818.306030	718.178467
818.258911	795.598755
818.211853	805.581177
818.164795	835.780884
818.117676	876.079285
818.070618	862.460754
818.023499	899.373230
817.976440	865.547974
817.929321	875.509094
817.882202	855.165894
817.835144	841.561707
817.788025	922.201477
817.740967	911.955933
817.693848	905.078308
817.646729	982.304260
817.599670	1005.688965
817.552551	958.443787
817.505432	928.026062
817.458374	988.388550
817.411255	1105.873779
817.364075	1021.674500
817.316956	977.825256
817.269897	991.104797
817.222717	950.633850
817.175598	916.893250
817.128479	926.818115
817.081360	946.812134
817.034180	933.230225
816.987061	993.493408
816.939941	1010.110901
816.892822	1056.920654
816.845642	986.298645
816.798523	1049.868042
816.751404	1056.404419
816.704224	1022.701233
816.657104	972.246094
816.609985	1025.720215
816.562744	1173.018311
816.515625	1119.212280
816.468506	1152.533936
816.421265	1175.795044
816.374146	1075.124634
816.326965	1212.248413
816.279785	1141.738525
816.232605	1098.032959
816.185486	1111.242554
816.138306	1188.032715
816.091125	1130.956787
816.043945	1047.135498
815.996765	1107.173706
815.949585	1073.549438
815.902405	1120.188477
815.855164	1143.409058
815.807983	1096.424194
815.760803	1159.747559
815.713623	1136.166992
815.666443	1182.757568
815.619263	1165.861938
815.572083	1182.372192
815.524841	1178.839966
815.477661	1115.207886
815.430420	1255.239136
815.383240	1251.696655
815.335999	1294.877808
815.288757	1141.175293
815.241577	1291.119507
815.194336	1290.909180
815.147156	1294.033936
815.099915	1193.785156
815.052673	1216.928955
815.005432	1166.727905
814.958252	1249.861938
814.911011	1272.985107
814.863770	1269.445801
814.816528	1262.576172
814.769287	1232.393188
814.722046	1102.312622
814.674866	1268.618286
814.627563	1255.094727
814.580322	1201.632202
814.533081	1264.669800
814.485840	1314.376709
814.438599	1327.470337
814.391296	1297.315796
814.344055	1370.274292
814.296753	1273.615234
814.249573	1306.655884
814.202209	1369.604126
814.154968	1332.819702
814.107727	1335.925537
814.060486	1342.353027
814.013184	1514.884033
813.965881	1421.632935
813.918640	1285.238892
813.871338	1354.759521
813.824097	1341.258789
813.776794	1360.956543
813.729431	1354.096802
813.682190	1304.101074
813.634949	1320.477295
813.587585	1277.137817
813.540283	1482.564819
813.492981	1339.728149
813.445740	1322.931519
813.398376	1385.702271
813.351074	1349.016235
813.303833	1398.506104
813.256531	1438.039429
813.209167	1407.988647
813.161865	1467.381592
813.114502	1457.206787
813.067261	1496.704468
813.019958	1460.041992
812.972595	1453.183350
812.925232	1535.688110
812.877930	1518.891846
812.830566	1545.112793
812.783325	1475.391479
812.735962	1514.840942
812.688599	1514.593750
812.641296	1577.168823
812.593933	1444.675659
812.546631	1533.684448
812.499207	1417.765625
812.451904	1443.968384
812.404541	1509.807495
812.357239	1509.561035
812.309875	1482.893433
812.262512	1472.744995
812.215149	1531.932983
812.167786	1551.489258
812.120361	1544.635010
812.073059	1511.383179
812.025635	1580.424316
811.978333	1530.683105
811.930969	1728.333984
811.883545	1757.732178
811.836182	1642.040649
811.788818	1770.345215
811.741394	1667.874146
811.694031	1710.445312
811.646667	1677.214844
811.599304	1703.297607
811.551880	1663.490967
811.504456	1742.263428
811.457092	1761.736816
811.409668	1675.845947
811.362305	1629.485840
811.314941	1701.629395
811.267517	1658.570923
811.220154	1687.912598
811.172729	1644.870239
811.125305	1710.385742
811.077881	1696.951660
811.030457	1634.200073
810.983032	1808.175537
810.935608	1719.129639
810.888184	1692.556763
810.840820	1846.721313
810.793396	1754.427246
810.745911	1961.089844
810.698486	1895.082031
810.651062	1891.488647
810.603638	1940.429077
810.556213	1874.456787
810.508728	1887.279419
810.461365	1978.858398
810.413879	1955.567017
810.366394	1876.512695
810.318970	1899.166626
810.271545	1941.490356
810.224060	1905.104004
810.176636	1983.476074
810.129211	1911.037354
810.081726	1868.118896
810.034302	1907.135986
809.986816	1969.074585
809.939331	1985.131714
809.891907	2011.009399
809.844421	1977.933472
809.796936	1980.884277
809.749451	2046.033691
809.702026	2111.161621
809.654480	2048.637451
809.607056	2061.390625
809.559570	2097.040527
809.512085	2155.575195
809.464600	2115.977539
809.417114	2174.489990
809.369568	2131.632568
809.322144	2078.982666
809.274597	2255.131348
809.227173	2339.724609
809.179626	2195.583740
809.132141	2084.156738
809.084656	2217.729004
809.037109	2207.569336
808.989563	2125.580811
808.942078	2193.789307
808.894592	2115.093750
808.847107	2186.544922
808.799561	2173.135498
808.752014	2257.603271
808.704529	2191.996094
808.656982	2305.785400
808.609497	2328.234131
808.561951	2399.579834
808.514404	2412.226318
808.466858	2405.313477
808.419373	2316.935059
808.371826	2453.399170
808.324280	2430.194336
808.276733	2501.453125
808.229187	2396.833740
808.181641	2529.938965
808.134094	2418.838135
808.086548	2415.187256
808.039001	2466.863281
807.991455	2307.018311
807.943909	2400.988525
807.896301	2394.090088
807.848755	2468.501465
807.801208	2380.299561
807.753662	2295.377686
807.706055	2460.788574
807.658508	2382.381592
807.610901	2329.997314
807.563416	2609.039795
807.515747	2335.731934
807.468201	2630.922363
807.420654	2585.026611
807.373108	2691.754150
807.325439	2717.285156
807.277832	2661.659668
807.230347	2765.076660
807.182739	2754.889404
807.135132	2657.108643
807.087463	2682.624023
807.039917	2902.727295
806.992310	2574.735352
806.944702	2580.798340
806.897156	2512.300537
806.849548	2641.535156
806.801880	2501.756104
806.754272	2647.150391
806.706665	2630.519287
806.659058	2565.308105
806.611450	2415.917236
806.563843	2590.371826
806.516235	2534.911377
806.468567	2706.052002
806.420959	2757.390869
806.373291	2666.335693
806.325684	2824.429688
806.278076	2833.671387
806.230469	2716.774170
806.182800	2813.340820
806.135132	2848.445312
806.087524	2825.350098
806.039856	2740.851807
805.992249	2733.939697
805.944580	2659.177002
805.896973	2765.349609
805.849243	2890.867432
805.801636	2635.264160
805.753967	2844.714844
805.706299	2895.903809
805.658691	2692.071289
805.611023	2607.718750
805.563354	2662.147705
805.515625	2629.448486
805.468018	2567.727539
805.420349	2686.641602
805.372681	2550.762695
805.324951	2669.640137
805.277283	2740.123535
805.229614	2662.319092
805.181885	2884.243408
805.134216	2835.439453
805.086548	2789.872803
805.038879	2869.941406
804.991211	2837.266113
804.943481	2923.740479
804.895752	2987.650391
804.848083	2990.379639
804.800354	2851.498535
804.752686	2889.645508
804.705017	2763.695557
804.657288	2853.313232
804.609619	2839.980469
804.561890	2852.377930
804.514160	2858.340820
804.466431	2803.222168
804.418701	2799.548340
804.371033	2754.098389
804.323303	2686.171143
804.275513	2836.722900
804.227844	2922.983643
804.180115	2819.734863
804.132385	2983.034424
804.084595	2860.546631
804.036865	3075.145264
803.989197	2859.608643
803.941467	3038.838623
803.893738	2926.046875
803.845947	2915.943359
803.798218	2873.769775
803.750488	2828.403320
803.702759	2965.809326
803.654968	2923.648193
803.607178	2871.885010
803.559448	3015.625488
803.511719	2842.105225
803.463928	2905.712158
803.416199	2962.891846
803.368408	2843.909424
803.320679	2881.867920
803.272888	2858.984131
803.225159	2820.103027
803.177307	2922.056152
803.129578	2844.777344
803.081787	3010.682129
803.033997	2946.209473
802.986206	3089.654053
802.938416	2977.221680
802.890686	3107.824463
802.842896	3113.708008
802.795105	3237.852783
802.747253	3298.041260
802.699524	3386.967041
802.651672	3261.816895
802.603882	3206.979980
802.556091	3279.908447
802.508301	3371.971436
802.460510	3250.098145
802.412720	3239.988281
802.364929	3418.185059
802.317078	3395.286621
802.269226	3257.536377
802.221436	3247.431396
802.173645	3333.014648
802.125793	3393.057617
802.078003	3303.224365
802.030151	3446.138428
801.982361	3410.511230
801.934509	3378.082520
801.886719	3616.503906
801.838867	3498.034668
801.791016	3631.242920
801.743164	3758.037842
801.695312	3684.182861
801.647522	3915.990234
801.599609	4033.125977
801.551819	3975.175293
801.503967	4095.444580
801.456055	4132.951660
801.408203	4049.563965
801.360352	3988.467529
801.312500	3971.912109
801.264709	3964.900635
801.216797	4110.484375
801.168945	4138.416016
801.121094	4055.108643
801.073181	4143.411621
801.025391	4101.430664
800.977478	4189.696289
800.929565	4179.480469
800.881714	4267.704590
800.833862	4225.729980
800.785950	4320.265625
800.738037	4408.422852
800.690247	4585.402344
800.642334	4489.465820
800.594421	4517.278809
800.546570	4773.445801
800.498596	4595.074219
800.450745	4778.218750
800.402832	4710.859863
800.354980	4833.701660
800.307068	4851.922363
800.259155	4689.526367
800.211243	4767.957520
800.163330	4729.163086
800.115417	4646.042969
800.067505	4638.946289
800.019653	4590.693848
799.971680	4621.593750
799.923767	4551.205078
799.875854	4540.963867
799.827942	4562.364746
799.779968	4561.614746
799.732117	4494.444336
799.684143	4658.147949
799.636230	4568.850586
799.588257	4628.164062
799.540344	4608.438477
799.492371	4696.168457
799.444458	4651.159668
799.396545	4918.930176
799.348572	4744.391602
799.300598	4746.769531
799.252686	4682.835449
799.204712	4568.407715
799.156738	4608.692871
799.108826	4573.217285
799.060852	4455.708008
799.012878	4549.627441
798.964966	4432.160645
798.916992	4330.501953
798.869019	4550.536621
798.821045	4439.432617
798.773071	4347.280273
798.725098	4305.589355
798.677124	4137.854492
798.629150	4376.644531
798.581116	4281.412109
798.533203	4343.705566
798.485168	4516.206543
798.437256	4380.062500
798.389221	4498.979004
798.341248	4444.725586
798.293274	4362.164551
798.245300	4521.932617
798.197266	4631.308105
798.149292	4375.740234
798.101257	4246.065430
798.053223	4217.063965
798.005310	4156.630371
797.957275	4055.348389
797.909241	4064.110352
797.861206	3981.732666
797.813232	3817.686523
797.765198	3936.439453
797.717224	3832.135498
797.669189	3665.053955
797.621155	3749.232178
797.573120	3629.312500
797.525146	3594.185547
797.477112	3772.489014
797.429016	3630.658203
797.381042	3664.572754
797.333008	3632.599854
797.284912	3704.139893
797.236877	3753.704834
797.188843	3674.701416
797.140808	3611.398438
797.092773	3466.622314
797.044800	3409.641846
796.996704	3371.480225
796.948608	3314.534180
796.900635	3238.812744
796.852539	3138.061768
796.804504	3081.181885
796.756409	3174.597412
796.708374	2973.738281
796.660339	2970.118896
796.612244	2894.528320
796.564209	2865.893066
796.516113	2862.292969
796.468018	2852.438232
796.419983	2864.477051
796.371887	2860.878418
796.323792	2704.100830
796.275757	2831.805420
796.227600	2775.087158
796.179504	2730.885742
796.131470	2939.748291
796.083374	2808.074707
796.035278	2751.397217
795.987183	2779.046631
795.939087	2706.782471
795.891052	2675.121338
795.842896	2590.414062
795.794800	2546.300537
795.746643	2673.799072
795.698547	2445.639404
795.650452	2426.522705
795.602356	2391.820312
795.554260	2313.478516
795.506165	2309.979736
795.458069	2403.105225
795.409912	2318.567383
795.361816	2333.764404
795.313660	2218.112549
795.265564	2227.091309
795.217407	2270.324463
795.169312	2179.650146
795.121216	2235.329834
795.073059	2188.269775
795.024902	2247.041748
794.976746	2221.777344
794.928589	2224.522217
794.880493	2168.162598
794.832336	2192.686523
794.784180	2270.067139
794.736023	2198.181885
794.687866	2116.994385
794.639709	2014.076416
794.591553	2054.143311
794.543396	2069.340088
794.495239	1901.242188
794.447144	1966.156616
794.398926	1850.925781
794.350830	1807.149536
794.302612	1825.478760
794.254456	1862.426147
794.206238	1840.394165
794.158081	1874.223755
794.109924	1883.222046
794.061707	1737.117554
794.013550	1696.511597
793.965393	1841.977417
793.917236	1826.171143
793.869019	1701.871826
793.820862	1794.574219
793.772583	1831.465088
793.724426	1722.718384
793.676270	1694.552979
793.628052	1632.325439
793.579895	1675.412476
793.531677	1597.726685
793.483459	1554.120972
793.435242	1581.722534
793.387085	1615.504639
793.338806	1581.200439
793.290649	1580.939453
793.242371	1546.652100
793.194214	1450.520142
793.145996	1589.433472
793.097778	1579.895752
793.049561	1527.083496
793.001343	1576.283325
792.953064	1591.474365
792.904846	1653.006226
792.856628	1662.000854
792.808411	1735.855591
792.760193	1618.217285
792.711914	1651.914673
792.663696	1543.590576
792.615417	1660.629150
792.567200	1666.527222
792.518982	1721.793701
792.470703	1641.295654
792.422485	1650.278442
792.374207	1674.678833
792.325928	1631.231689
792.277710	1689.541260
792.229492	1735.501099
792.181152	1821.512817
792.132935	1707.193481
792.084656	1879.451294
792.036377	1817.529663
791.988098	1798.749023
791.939819	1810.770020
791.891602	1884.367676
791.843323	1880.977783
791.795044	2016.099609
791.746765	2000.378906
791.698486	1963.124390
791.650208	1996.641479
791.601929	2054.755127
791.553650	2091.321289
791.505371	1949.527222
791.457031	2029.140869
791.408752	2090.284424
791.360474	1994.662354
791.312195	2295.479980
791.263916	2052.379150
791.215576	2015.176880
791.167297	2048.629395
791.118958	2118.921387
791.070679	2094.008057
791.022339	1949.377197
790.974060	2087.177002
790.925720	2007.041260
790.877441	2111.033691
790.829102	2135.227539
790.780823	2153.278564
790.732422	2076.251465
790.684143	2115.770508
790.635803	2090.894043
790.587524	2118.136230
790.539185	2185.211914
790.490845	2169.529053
790.442505	2049.681885
790.394104	2095.292480
790.345825	2003.062256
790.297424	1965.983643
790.249146	1987.090820
790.200745	1925.536865
790.152405	1778.301880
790.104065	1882.056274
790.055725	1973.537476
790.007385	1838.604370
789.958984	1902.533569
789.910706	1831.879639
789.862305	1822.403320
789.813904	1815.987427
789.765564	1779.006348
789.717224	1870.398193
789.668823	1918.979980
789.620483	1936.993652
789.572083	1863.360596
789.523682	1951.623535
789.475342	1853.582886
789.427002	1896.020508
789.378601	1868.232788
789.330200	1837.401978
789.281799	1980.525757
789.233459	1882.561035
789.185059	1757.172974
789.136658	1842.286011
789.088257	1780.988403
789.039856	1759.349609
788.991455	1829.176880
788.943115	1706.949097
788.894714	1718.856934
788.846252	1776.467651
788.797913	1779.220093
788.749451	1733.233887
788.701050	1784.722168
788.652649	1753.975708
788.604248	1863.290649
788.555847	1844.717529
788.507385	1883.978638
788.458984	1883.666748
788.410522	1776.864624
788.362122	1800.906860
788.313660	1678.945923
788.265259	1836.803223
788.216858	1708.795410
788.168396	1693.312134
788.119995	1662.636108
788.071533	1641.087402
788.023071	1567.890381
787.974670	1470.413208
787.926208	1509.657715
787.877747	1479.037231
787.829346	1381.623169
787.780884	1384.430298
787.732422	1399.378540
787.684021	1332.376099
787.635559	1313.948242
787.587097	1313.730469
787.538635	1289.244751
787.490173	1361.823364
787.441711	1240.297241
787.393250	1270.411865
787.344788	1200.476685
787.296326	1163.905640
787.247803	1121.285767
787.199341	1118.069824
787.150879	1087.589600
787.102417	1181.308228
787.053894	1041.801636
787.005432	1050.713013
786.956909	1035.401367
786.908508	959.555054
786.859985	1056.243530
786.811523	1056.068359
786.763000	925.797546
786.714478	901.444214
786.666016	916.417175
786.617493	861.833618
786.569031	834.479431
786.520508	867.593811
786.471985	867.449951
786.423523	882.415955
786.375000	894.355530
786.326477	818.682922
786.277954	863.854187
786.229431	863.710938
786.180908	812.236755
786.132446	745.684753
786.083923	830.078125
786.035339	760.527222
785.986816	724.191528
785.938354	751.224060
785.889771	702.836060
785.841248	747.958862
785.792725	744.819336
785.744202	657.261841
785.695679	630.022644
785.647095	657.043762
785.598572	635.840515
785.550049	699.007263
785.501465	656.716797
785.452942	677.691528
785.404358	698.659302
785.355835	662.411804
785.307251	638.218201
785.258728	653.162109
785.210205	638.006348
785.161621	652.945312
785.113037	697.963928
785.064453	655.736572
785.015930	652.620239
784.967346	625.449219
784.918762	589.267761
784.870239	625.241577
784.821594	583.061218
784.773071	555.919678
784.724487	573.854187
784.675903	534.707275
784.627319	591.684509
784.578735	603.598206
784.530151	507.418671
784.481567	555.366089
784.432983	573.282776
784.384399	588.192444
784.335754	540.087036
784.287170	578.997192
784.238586	590.898926
784.190002	587.801819
784.141357	608.693665
784.092773	584.608582
784.044128	617.483948
783.995605	683.315308
783.946960	650.240295
783.898376	647.136292
783.849670	641.037781
783.801086	622.961243
783.752502	652.802856
783.703857	670.658447
783.655212	673.540527
783.606628	586.631165
783.558044	643.391541
783.509338	550.531982
783.460693	598.304932
783.412109	547.358032
783.363464	544.276550
783.314819	454.485077
783.266174	508.221191
783.217529	478.246338
783.168884	421.384552
783.120300	445.218872
783.071594	466.057739
783.022949	445.070892
782.974304	400.198578
782.925659	429.992645
782.877014	385.137695
782.828369	379.103546
782.779663	364.117676
782.731018	331.232300
782.682373	366.980194
782.633667	316.206757
782.585022	334.049713
782.536377	322.065796
782.487671	322.012268
782.439026	357.731903
782.390320	312.963348
782.341614	309.931213
782.292969	357.553467
782.244263	351.535767
782.195557	351.477295
782.146912	300.790710
782.098206	324.561707
782.049500	351.301941
782.000854	339.336945
781.952087	354.161224
781.903442	371.956207
781.854736	419.496826
781.806030	365.883148
781.757324	428.279755
781.708618	413.340149
781.659912	475.708069
781.611206	469.683563
781.562500	457.716675
781.513794	478.442352
781.465027	511.045898
781.416382	510.960846
781.367615	478.203522
781.318909	498.911957
781.270203	516.644226
781.221436	564.057861
781.172791	531.313477
781.124023	554.966919
781.075256	554.874573
781.026550	602.250183
780.977844	584.352417
780.929077	566.460571
780.880310	557.470459
780.831604	563.307190
780.782837	572.106262
780.734131	533.481750
780.685364	563.025879
780.636597	524.415771
780.587891	512.479187
780.539062	485.737549
780.490356	423.468903
780.441589	450.045837
780.392822	479.574249
780.344055	446.936127
780.295288	426.146271
780.246521	452.704987
780.197815	426.004333
780.148987	417.059753
780.100281	437.691925
780.051453	416.920837
780.002686	405.025818
779.953918	381.311157
779.905151	363.515167
779.856384	384.139038
779.807556	372.257355
779.758789	357.425659
779.710022	342.598938
779.661194	321.871216
779.612427	304.102844
779.563599	283.388458
779.514832	295.147095
779.466003	303.950867
779.417236	256.692413
779.368408	262.549622
779.319580	241.859344
779.270813	274.258179
779.221985	241.778732
779.173218	303.647064
779.124390	218.117828
779.075562	277.022430
779.026733	256.350342
778.977966	285.768280
778.929138	262.156036
778.880310	273.892670
778.831482	203.176804
778.782593	209.031143
778.733826	226.657944
778.684937	226.620163
778.636108	182.442947
778.587341	217.718170
778.538513	200.031998
778.489624	199.998642
778.440796	194.083954
778.391968	185.231064
778.343079	173.441422
778.294250	191.047668
778.245422	152.812653
778.196594	182.169312
778.147705	164.512573
778.098816	217.355347
778.049988	167.394440
778.001099	164.430267
777.952271	152.659775
777.903381	190.792877
777.854553	181.956696
777.805664	152.583374
777.756836	143.756500
777.707886	170.132370
777.659058	146.641357
777.610168	158.346252
777.561279	143.660583
777.512451	146.567963
777.463562	108.442200
777.414673	123.076004
777.365784	128.915253
777.316895	140.611343
777.268005	120.085480
777.219116	122.993858
777.170227	122.973328
777.121277	122.952805
777.072388	125.859238
777.023560	131.691177
776.974670	131.669189
776.925720	105.317764
776.876831	163.800278
776.827881	134.527771
776.778992	128.657257
776.730103	125.712227
776.681152	137.383453
776.632263	128.592819
776.583313	125.649261
776.534424	111.020340
776.485535	93.475204
776.436584	131.427551
776.387695	99.284233
776.338684	128.464020
776.289795	99.251068
776.240906	116.746460
776.191956	99.217918
776.143005	87.530594
776.094055	116.687965
776.045105	99.168205
775.996216	113.732758
775.947266	87.472122
775.898315	93.288010
775.849365	84.528137
775.800415	90.342560
775.751465	110.723991
775.702515	107.792191
775.653564	122.338257
775.604553	104.843842
775.555664	72.796051
775.506653	75.695244
775.457703	107.702156
775.408752	107.684151
775.359802	90.206779
775.310852	96.010521
775.261841	78.540932
775.212891	104.703735
775.163879	101.778282
775.114929	98.853806
775.065918	104.651237
775.016968	107.540237
774.968018	104.616249
774.918945	104.598763
774.869995	104.581268
774.820984	116.181984
774.772034	145.203201
774.723022	113.239555
774.674011	113.220619
774.625061	116.104294
774.576050	107.378510
774.527039	118.967094
774.478027	113.144897
774.429016	121.827972
774.380005	127.607956
774.330994	86.990875
774.281982	115.968430
774.232971	124.645210
774.183960	113.031395
774.134949	101.421463
774.085876	95.609955
774.036926	112.974678
773.987915	112.955772
773.938904	121.624329
773.889832	101.336647
773.840820	127.373329
773.791809	124.457649
773.742737	133.118454
773.693665	95.482048
773.644653	109.930626
773.595581	92.557663
773.546570	95.434113
773.497559	92.526688
773.448486	98.293144
773.399475	104.057678
773.350403	89.590225
773.301331	86.685699
773.252319	78.004074
773.203247	103.988022
773.154236	77.977959
773.105103	72.189728
773.056030	66.403427
773.007019	83.712044
772.957947	72.153473
772.908875	66.370079
772.859802	83.669998
772.810730	75.001923
772.761658	57.684124
772.712585	92.279144
772.663513	83.613968
772.614441	80.717209
772.565369	92.232788
772.516296	34.581501
772.467163	74.914040
772.418091	69.139832
772.368958	51.846191
772.319946	71.996536
772.270813	51.828823
772.221741	86.366898
772.172668	80.595596
772.123535	80.582100
772.074402	63.303898
772.025330	63.293289
771.976257	60.406197
771.927124	60.396076
771.877991	60.385956
771.828918	71.875999
771.779785	60.365719
771.730652	51.733372
771.681580	45.977512
771.632446	45.969807
771.583313	57.452629
771.534180	54.570847
771.485046	66.048378
771.435974	66.037300
771.386780	60.284821
771.337708	68.885391
771.288513	48.785637
771.239380	43.038933
771.190247	65.981964
771.141113	48.761105
771.091980	63.092022
771.042908	54.479427
770.993713	31.535433
770.944519	34.396523
770.895447	40.122547
770.846313	48.712063
770.797119	48.703896
770.747925	48.695724
770.698792	51.551533
770.649658	37.225418
770.600525	54.397255
770.551331	54.388130
770.502197	48.654900
770.453003	68.677750
770.403870	40.055298
770.354675	45.769806
770.305481	51.482391
770.256287	51.473755
770.207153	28.591732
770.157959	40.021709
770.108765	51.447845
770.059631	40.008278
770.010437	37.144310
769.961243	34.281300
769.912048	62.838505
769.862854	45.693062
769.813660	42.830055
769.764465	39.968006
769.715271	51.378815
769.666077	65.639687
769.616882	51.361565
769.567688	39.941177
769.518494	34.229549
769.469238	45.631737
769.420044	42.772572
769.370850	59.871548
769.321594	57.010944
769.272461	45.601097
769.223206	37.044670
769.173950	45.585785
769.124817	42.729496
769.075562	39.874168
769.026306	42.715149
768.977112	71.179955
768.927856	48.394241
768.878662	34.154903
768.829407	56.915279
768.780212	42.679287
768.730957	59.740967
768.681763	28.443300
768.632446	31.282375
768.583252	25.590370
768.533997	22.743174
768.484741	19.896935
768.435486	45.471066
768.386230	25.573177
768.337036	45.455788
768.287781	36.926620
768.238525	56.800640
768.189209	45.432877
768.140015	31.229853
768.090759	25.547403
768.041443	42.571850
767.992188	36.889400
767.942932	31.208862
767.893677	31.203617
767.844421	42.543236
767.795105	45.371822
767.745850	28.352623
767.696594	48.191353
767.647278	39.680325
767.598022	25.504492
767.548767	25.500204
767.499451	16.997278
767.450134	28.324034
767.400879	33.983124
767.351562	33.977409
767.302307	39.633644
767.252991	16.982992
767.203735	33.960270
767.154419	36.784107
767.105103	28.290709
767.055786	16.971569
767.006470	16.968716
766.957214	22.621147
766.907837	33.926014
766.858582	25.440229
766.809265	28.262167
766.759949	22.605930
766.710632	22.602127
766.661316	33.897488
766.612000	28.243153
766.562683	28.238400
766.513367	11.293459
766.464050	19.760229
766.414673	33.868977
766.365356	31.041338
766.316040	25.393183
766.266724	39.493858
766.217346	19.743607
766.168030	11.280162
766.118713	36.654354
766.069336	25.371820
766.020020	22.548933
765.970703	25.363279
765.921326	14.088339
765.871948	33.806320
765.822632	36.617348
765.773254	25.346205
765.723938	25.341936
765.674561	39.414154
765.625244	22.518581
765.575867	19.700439
765.526489	30.952621
765.477112	33.760811
765.427795	14.064635
765.378418	22.499626
765.329041	19.683857
765.279663	33.738071
765.230286	30.921356
765.180908	25.295031
765.131531	8.430257
765.082153	25.286509
765.032715	28.091389
764.983337	28.086655
764.934021	33.698307
764.884644	30.884911
764.835205	30.879707
764.785828	25.260958
764.736450	33.675602
764.687073	8.417482
764.637634	30.858900
764.588257	22.439054
764.538818	28.044090
764.489441	16.823618
764.440063	19.624247
764.390625	33.635895
764.341187	39.235264
764.291809	30.822512
764.242432	28.015741
764.192932	19.607714
764.143555	25.205667
764.094116	25.201418
764.044739	25.197168
763.995300	36.389774
763.945862	36.383640
763.896484	13.991347
763.847046	22.382381
763.797607	22.378607
763.748169	19.577980
763.698730	30.760208
763.649292	22.367287
763.599854	0.000000
763.550415	27.949678
763.500977	25.150469
763.451538	19.558176
763.402100	27.935539
763.352661	39.103157
763.303162	27.926115
763.253723	36.297825
763.204285	39.083370
763.154846	33.494381
763.105408	33.488728
763.055908	27.902565
763.006470	16.738714
762.957031	25.103834
762.907532	36.254974
762.858032	27.883736
762.808594	22.303225
762.759094	30.661758
762.709656	22.295696
762.660156	50.156849
762.610718	30.646235
762.561218	16.713306
762.511780	27.850809
762.462280	25.061497
762.412781	30.625547
762.363342	25.053036
762.313843	25.048807
762.264343	8.348192
762.214783	36.169392
762.165344	33.381496
762.115845	44.501144
762.066345	16.685112
762.016846	22.243057
761.967346	25.019215
761.917847	22.235546
761.868286	41.684608
761.818848	22.228037
761.769287	25.002317
761.719788	24.998095
761.670288	24.993872
761.620789	16.659765
761.571228	24.985428
761.521729	22.205517
761.472229	38.853088
761.422668	24.972767
761.373169	33.291397
761.323608	36.059586
761.274109	38.826839
761.224609	44.366032
761.175049	36.041309
761.125488	30.491339
761.075989	27.714714
761.026489	36.023041
760.976929	27.705347
760.927307	24.930599
760.877808	24.926384
760.828308	22.153042
760.778687	44.298592
760.729187	44.291103
760.679626	35.980438
760.630066	19.370808
760.580566	24.901114
760.530945	30.429548
760.481384	38.721970
760.431824	27.653872
760.382263	11.059678
760.332703	22.115616
760.283142	46.987740
760.233521	33.162205
760.184021	33.156597
760.134460	22.100660
760.084839	22.096922
760.035278	24.854834
759.985657	30.372992
759.936096	27.607140
759.886536	35.883209
759.836975	16.558680
759.787354	22.074505
759.737732	33.106155
759.688232	19.308657
759.638611	16.547478
759.588989	41.361694
759.539368	30.326777
759.489807	49.617237
759.440186	46.852795
759.390564	16.533482
759.341003	27.551140
759.291443	27.546476
759.241760	19.279270
759.192200	33.044582
759.142578	16.519495
759.092957	13.763916
759.043335	33.027805
758.993713	38.525917
758.944092	38.519394
758.894470	30.260115
758.844849	19.253178
758.795227	24.749893
758.745667	43.992359
758.695984	43.984913
758.646362	49.474648
758.596741	19.236883
758.547058	27.476606
758.497437	19.230368
758.447815	24.720572
758.398193	27.462648
758.348511	35.695396
758.298889	32.944016
758.249268	38.428177
758.199646	46.654881
758.149963	32.927277
758.100281	30.178225
758.050659	41.145153
758.000977	27.425455
757.951355	13.710404
757.901672	24.674545
757.851990	32.893822
757.802368	35.628933
757.752686	24.662004
757.703003	30.137342
757.653320	32.871529
757.603699	30.127129
757.554016	32.860390
757.504333	27.379015
757.454651	43.799000
757.404968	24.632761
757.355286	19.155567
757.305603	16.416275
757.255920	21.884655
757.206238	24.616062
757.156616	8.203963
757.106873	10.936763
757.057190	30.070999
757.007446	32.799164
756.957764	32.793602
756.908081	30.055704
756.858398	43.709976
756.808716	32.776920
756.758972	19.116629
756.709290	24.574354
756.659607	30.030228
756.609924	38.213806
756.560120	27.290945
756.510437	35.472210
756.460693	24.553518
756.411072	43.643295
756.361328	19.090702
756.311584	24.541025
756.261902	10.905272
756.212097	16.355131
756.162415	27.253927
756.112671	35.424095
756.062927	19.071276
756.013184	32.688068
755.963501	21.788347
755.913757	40.846218
755.864014	24.503571
755.814270	40.832352
755.764587	29.938643
755.714844	57.145889
755.665100	21.766167
755.615356	40.804634
755.565552	27.198473
755.515808	35.352013
755.466064	16.313543
755.416321	32.621548
755.366577	24.462006
755.316833	19.022774
755.267029	43.473244
755.217285	21.732931
755.167542	21.729240
755.117737	21.725550
755.067993	48.874184
755.018188	21.718170
754.968445	16.285862
754.918701	32.566189
754.868896	27.133883
754.819092	10.851709
754.769348	18.987265
754.719543	37.968079
754.669739	21.692360
754.619995	18.977589
754.570190	21.684988
754.520386	24.391468
754.470642	18.967918
754.420837	27.092421
754.371033	16.252689
754.321228	13.541607
754.271484	29.786472
754.221619	10.829603
754.171875	21.655525
754.122070	43.303692
754.072205	24.354185
754.022400	16.233364
753.972595	18.935705
753.922852	27.046410
753.872986	24.337629
753.823181	37.852100
753.773376	29.735878
753.723572	27.028021
753.673706	21.618740
753.623901	24.316948
753.574097	29.715660
753.524292	27.009642
753.474426	27.005049
753.424561	18.900320
753.374756	35.094624
753.324951	35.088654
753.275085	26.986681
753.225281	37.774929
753.175415	32.373001
753.125610	29.670204
753.075745	29.665155
753.025879	21.570990
752.976074	32.350979
752.926208	45.822754
752.876343	35.034969
752.826477	21.556313
752.776672	48.493450
752.726807	35.017086
752.676941	24.238472
752.627075	21.541643
752.577209	16.153482
752.527344	48.452198
752.477539	26.913307
752.427673	34.981342
752.377808	48.427464
752.327881	24.209610
752.278015	24.205488
752.228149	26.890408
752.178284	32.262997
752.128357	34.945629
752.078491	32.252010
752.028625	32.246521
751.978760	37.614532
751.928833	42.980721
751.878967	18.800861
751.829102	40.280701
751.779175	24.164305
751.729309	24.160189
751.679382	29.524092
751.629456	32.202614
751.579590	21.464752
751.529663	24.143732
751.479797	29.503981
751.429871	32.180676
751.379944	29.493929
751.330078	26.808094
751.280212	40.205292
751.230225	16.079376
751.180298	42.871029
751.130371	32.147793
751.080505	37.499367
751.030579	13.390349
750.980652	37.486588
750.930725	26.771570
750.880859	32.120411
750.830872	37.467422
750.780945	29.433672
750.731018	18.727325
750.681091	37.448269
750.631165	40.116302
750.581177	45.457394
750.531311	32.082100
750.481384	48.114948
750.431396	40.088955
750.381409	26.721413
750.331482	37.403599
750.281616	24.041069
750.231628	37.390842
750.181641	26.703190
750.131714	42.717819
750.081787	37.371716
750.031799	34.696388
