#Wave		#Intensity
899.963257	144.549515
899.920715	140.032349
899.878235	144.526321
899.835815	158.050293
899.793274	148.994934
899.750793	157.999573
899.708252	144.433563
899.665771	189.538635
899.623230	166.947723
899.580688	162.409546
899.538208	184.936752
899.495667	166.867355
899.453186	189.386612
899.410645	180.339249
899.368103	166.787048
899.325623	144.225113
899.283020	153.214584
899.240540	171.212357
899.197998	148.660553
899.155396	216.198837
899.112854	166.626526
899.070312	139.583618
899.027771	153.067139
898.985229	166.546341
898.942688	171.020142
898.900085	188.991943
898.857544	152.968933
898.814941	143.947662
898.772400	179.905701
898.729797	179.876846
898.687256	125.893585
898.644714	161.837219
898.602112	166.306000
898.559570	170.773361
898.516907	166.252655
898.474304	166.225983
898.431763	166.199310
898.389221	161.681488
898.346558	148.184265
898.304016	166.119339
898.261353	130.180756
898.218750	130.159866
898.176147	201.939804
898.133606	201.907410
898.090942	148.041687
898.048340	197.357254
898.005676	188.356247
897.963074	188.326035
897.920471	170.362885
897.877808	179.300583
897.835205	170.308243
897.792542	192.686310
897.749939	147.851822
897.707275	170.226303
897.664673	170.198990
897.622009	152.258881
897.579346	165.666916
897.536743	174.593872
897.494080	138.757492
897.451477	174.537872
897.408752	152.136810
897.366089	165.534103
897.323425	134.195312
897.280823	143.118698
897.238098	187.813171
897.195435	120.717674
897.152710	160.931091
897.110046	174.314041
897.067383	192.161591
897.024719	223.407867
896.982056	218.904602
896.939331	156.335358
896.896667	169.708313
896.854004	187.542252
896.811279	174.118454
896.768555	200.873688
896.725830	160.673172
896.683167	174.034698
896.640442	209.700485
896.597778	196.283875
896.555054	205.172958
896.512268	205.140060
896.469604	205.107162
896.426880	213.990540
896.384094	218.413651
896.341431	182.724976
896.298706	200.519638
896.255920	231.674423
896.213257	200.455338
896.170532	173.700104
896.127747	182.578522
896.085022	178.096817
896.042236	178.068268
895.999512	195.843689
895.956787	191.362000
895.913940	200.230453
895.871216	217.993759
895.828430	200.166245
895.785767	191.239304
895.742981	182.315216
895.700195	208.961975
895.657410	208.928482
895.614624	231.117844
895.571838	199.973770
895.529114	257.702637
895.486267	253.218887
895.443481	235.411392
895.400757	239.814667
895.357910	204.253815
895.315125	230.858597
895.272339	213.066071
895.229553	204.155594
895.186768	221.872665
895.143921	204.090134
895.101135	208.493454
895.058350	297.166412
895.015442	221.730423
894.972656	234.996582
894.929871	283.723969
894.887024	199.461426
894.844238	203.861221
894.801392	248.139084
894.758545	181.644135
894.715698	221.481735
894.672913	261.306549
894.630066	243.551804
894.587219	234.657761
894.544373	212.486160
894.501526	252.286865
894.458679	199.141922
894.415894	207.959335
894.372986	234.469742
894.330078	203.469421
894.287292	243.239655
894.244446	229.935181
894.201538	247.582809
894.158691	234.281891
894.115845	229.824631
894.072876	265.139771
894.030029	243.005829
893.987183	269.472351
893.944275	242.927933
893.901428	242.888992
893.858521	256.096436
893.815552	264.884888
893.772766	269.256470
893.729858	313.346649
893.686951	269.170166
893.644043	282.362793
893.601135	269.083893
893.558167	260.219757
893.515320	220.489868
893.472412	251.318176
893.429504	304.178497
893.386536	321.760468
893.343689	273.232208
893.300720	286.407227
893.257812	268.739075
893.214844	259.886322
893.171936	246.632217
893.129028	237.785812
893.086060	290.580536
893.043091	334.554260
893.000183	303.691376
892.957275	281.639618
892.914307	281.594482
892.871338	294.746979
892.828430	299.098236
892.785461	281.459137
892.742493	299.002411
892.699524	285.765320
892.656555	298.906586
892.613525	272.488800
892.570618	294.416504
892.527649	338.305054
892.484619	307.500763
892.441711	333.804474
892.398682	324.968079
892.355652	386.386597
892.312744	338.034088
892.269775	294.086426
892.226746	333.537109
892.183777	302.768066
892.140686	333.430237
892.097717	320.217194
892.054749	342.095062
892.011719	306.959198
891.968750	337.601013
891.925720	306.860840
891.882751	289.279572
891.839722	302.380188
891.796692	354.911194
891.753662	267.235962
891.710632	328.516174
891.667603	275.909363
891.624573	310.895660
891.581482	359.005066
891.538513	437.740906
891.495422	310.746246
891.452454	297.568451
891.409363	345.649109
891.366272	336.844543
891.323242	406.773010
891.280273	358.602631
891.237122	415.387695
891.194092	375.974945
891.151062	380.285797
891.107971	354.002472
891.064880	384.533661
891.021851	327.675049
890.978760	410.620270
890.935730	358.143280
890.892639	427.956329
890.849548	375.493347
890.806458	371.067688
890.763367	362.278625
890.720276	375.312897
890.677185	309.801697
890.634155	375.192657
890.591003	362.046539
890.547913	396.878998
890.504761	340.127502
890.461731	309.553650
890.418579	361.814606
890.375488	335.605560
890.332336	357.340881
890.289246	392.140564
890.246155	326.731476
890.203003	344.102020
890.159912	365.822021
890.116760	357.054749
890.073669	370.058441
890.030457	378.705017
889.987366	409.110016
889.944214	369.880646
889.901062	391.575592
889.857910	365.412018
889.814758	395.799591
889.771606	369.643707
889.728516	360.888397
889.685364	408.651489
889.642212	378.159424
889.598999	334.639221
889.555908	391.074097
889.512695	351.910309
889.469543	430.043701
889.426392	364.827118
889.383240	386.481110
889.340027	395.102783
889.296875	364.651855
889.253723	421.018616
889.210449	351.515930
889.167297	373.154663
889.124146	360.079956
889.080933	347.009430
889.037781	338.279999
888.994507	364.243195
888.951294	329.500580
888.908081	381.465881
888.864868	377.070648
888.821716	359.676453
888.778503	350.953339
888.735291	415.878082
888.692078	342.178192
888.648804	415.744873
888.605652	376.708435
888.562378	389.635986
888.519226	411.216553
888.475952	346.232178
888.432739	445.702515
888.389465	359.100830
888.346252	380.672424
888.303040	341.685272
888.259766	445.417053
888.216492	350.223328
888.173279	393.397766
888.130066	393.334778
888.086731	406.236786
888.043457	384.566833
888.000244	414.747253
887.956970	397.402466
887.913696	388.701019
887.870483	371.365936
887.827209	341.083832
887.783936	375.563812
887.740601	401.400482
887.697327	379.758972
887.654053	401.271942
887.610779	375.323303
887.567505	392.516693
887.524231	362.265076
887.480957	340.647095
887.437622	357.837738
887.394348	439.682007
887.351074	430.991760
887.307739	405.067383
887.264404	374.842743
887.221130	361.859161
887.177734	422.101440
887.134460	378.969177
887.091125	378.908478
887.047852	447.729218
887.004517	413.222321
886.961182	413.156158
886.917908	408.786987
886.874573	408.721527
886.831238	473.180725
886.787842	417.192535
886.744568	408.525208
886.701172	464.354279
886.657837	395.497711
886.614502	416.925385
886.571167	412.561127
886.527832	455.463287
886.484436	421.021271
886.441101	446.726532
886.397766	416.591705
886.354370	407.936859
886.310974	433.631836
886.267639	420.684296
886.224304	433.492981
886.180908	442.006195
886.137451	416.191620
886.094177	433.284760
886.050781	441.793915
886.007385	467.454620
885.963989	450.228241
885.920593	484.453735
885.877197	432.937988
885.833862	484.298615
885.790405	561.353638
885.747009	432.730072
885.703613	531.187500
885.660217	513.970093
885.616821	501.040619
885.573364	483.833557
885.529968	539.409424
885.486511	500.799988
885.443115	573.473999
885.399719	504.918610
885.356323	492.002899
885.312805	564.643372
885.269409	483.291534
885.225952	517.424011
885.182556	525.892273
885.139099	470.234863
885.095642	512.901367
885.052185	504.272247
885.008728	482.827454
884.965332	482.750153
884.921875	495.487183
884.878418	448.429504
884.835022	520.948975
884.791504	478.171661
884.748108	516.513489
884.704590	495.090668
884.661072	477.942047
884.617615	520.532104
884.574219	627.098083
884.530762	490.508392
884.487244	533.075928
884.443726	541.518433
884.400269	567.011169
884.356812	532.819946
884.313232	583.877136
884.269836	583.783691
884.226257	570.908691
884.182739	553.777954
884.139343	532.393555
884.095825	604.702271
884.052307	562.027588
884.008789	608.765747
883.965332	578.873352
883.921753	646.872498
883.878235	506.351990
883.834717	536.051575
883.791199	535.965759
883.747681	527.373901
883.704163	518.784790
883.660645	582.476562
883.617126	544.124573
883.573547	569.539185
883.530029	616.193787
883.486511	577.854736
883.442932	560.769226
883.399414	556.431885
883.355896	552.095886
883.312317	590.223389
883.268738	505.218292
883.225220	517.871948
883.181641	598.428345
883.138062	555.897583
883.094482	564.294250
883.050964	559.961792
883.007385	619.252502
882.963745	648.838806
882.920227	661.455200
882.876648	601.997437
882.833069	652.765991
882.789429	635.709229
882.745911	529.672913
882.702332	635.505737
882.658691	677.764221
882.615112	656.479004
882.571533	669.077942
882.527954	732.480713
882.484314	596.897339
882.440735	630.662903
882.397156	630.561951
882.353516	630.460999
882.309875	600.745850
882.266296	571.040161
882.222656	579.407288
882.179016	579.314514
882.135437	621.500732
882.091797	625.628479
882.048218	528.317810
882.004517	532.459106
881.960876	583.076172
881.917236	599.880859
881.873657	565.994141
881.829956	612.358337
881.786316	557.367981
881.742737	578.387817
881.699036	671.160156
881.655396	548.659424
881.611694	649.846375
881.568054	582.236633
881.524414	569.488159
881.480774	632.663330
881.437073	683.166992
881.393372	615.595154
881.349731	611.280884
881.306091	632.258301
881.262390	602.656433
881.218689	539.354370
881.174988	492.924683
881.131348	530.757019
881.087646	551.730469
881.044006	530.587097
881.000244	505.240143
880.956604	509.368927
880.912903	538.750305
880.869141	496.580933
880.825500	568.031311
880.781799	483.801056
880.738098	538.405396
880.694397	521.496765
880.650574	513.003357
880.606934	458.265717
880.563232	512.839172
880.519470	529.568787
880.475769	584.113281
880.432007	542.003967
880.388306	525.113586
880.344604	516.629089
880.300842	491.348969
880.257080	512.264771
880.213379	499.588135
880.169617	541.483643
880.125854	495.231323
880.082092	528.721680
880.038391	528.637024
879.994629	545.331848
879.950867	549.438782
879.907104	507.415619
879.863342	498.948700
879.819580	549.174927
879.775818	536.512512
879.732056	469.373322
879.688293	511.199799
879.644531	460.844086
879.600708	485.903229
879.556946	431.379486
879.513123	431.310455
879.469299	456.362274
879.425598	464.661499
879.381775	410.175995
879.338013	397.555939
879.294189	397.492310
879.250427	405.795593
879.206604	439.192963
879.162781	506.036591
879.119019	459.959625
879.075134	426.439758
879.031372	455.632263
878.987549	397.047119
878.943726	451.307648
878.899963	447.057281
878.856140	421.921112
878.812317	417.676819
878.768433	459.370941
878.724609	455.121979
878.680786	363.204346
878.636963	400.713043
878.593079	450.730042
878.549255	433.966858
878.505432	408.864838
878.461609	362.913757
878.417725	417.075470
878.373840	379.477905
878.330017	441.958466
878.286194	350.175171
878.242310	379.295715
878.198425	341.728241
878.154602	337.506775
878.110718	445.770935
878.066895	370.722076
878.022949	378.992218
877.979065	374.767487
877.935181	358.053833
877.891296	378.810272
877.847473	366.263367
877.803589	324.590576
877.759705	349.503113
877.715759	349.447174
877.671936	341.072388
877.627991	324.382782
877.584106	378.386017
877.540222	315.964111
877.496277	340.854065
877.452393	332.487305
877.408447	373.988342
877.364563	290.833282
877.320679	369.714539
877.276672	311.507324
877.232788	336.374054
877.188904	307.255493
877.144958	348.720673
877.101013	344.514099
877.057068	286.357422
877.013184	273.863251
876.969238	302.860870
876.925354	273.775604
876.881348	311.058838
876.837402	311.009033
876.793457	257.059631
876.749512	281.891266
876.705566	294.280518
876.661560	261.080353
876.617676	236.177734
876.573730	231.997131
876.529724	289.949982
876.485779	227.781387
876.441833	248.449005
876.397888	244.269073
876.353821	310.461823
876.309875	231.774399
876.265869	260.704437
876.221924	273.075226
876.177917	289.578888
876.133972	194.400406
876.089966	293.621704
876.046021	322.518677
876.002014	268.722534
875.958008	281.080109
875.913940	276.902252
875.869995	264.461304
875.825989	293.339783
875.781982	243.722214
875.737976	297.376099
875.693970	272.551117
875.649902	222.960678
875.605896	268.335632
875.561890	247.654770
875.517883	264.122803
875.473877	264.080536
875.429810	264.038239
875.385864	268.120911
875.341736	276.326538
875.297791	247.416992
875.253723	325.713562
875.209656	251.460083
875.165588	272.028015
875.121521	247.258606
875.077454	329.625366
875.033447	350.170898
874.989380	300.686859
874.945374	300.638733
874.901306	304.708282
874.857239	321.127563
874.813110	358.123413
874.769104	279.867737
874.725037	366.238831
874.680969	353.837067
874.636841	312.643158
874.592773	304.366974
874.548706	341.329926
874.504639	259.040283
874.460571	312.442993
874.416443	295.951263
874.372437	304.123413
874.328308	304.074738
874.284180	279.375305
874.240051	332.731995
874.196045	320.357300
874.151917	295.667084
874.107788	332.572235
874.063660	291.467255
874.019531	332.465759
873.975464	291.373932
873.931335	287.224091
873.887207	303.588287
873.843079	307.641571
873.798950	323.997253
873.754822	315.744232
873.710754	307.493835
873.666565	307.444611
873.622437	331.987030
873.578308	270.464630
873.534180	348.269897
873.489990	372.793976
873.445862	356.350372
873.401672	372.674622
873.357605	397.182953
873.313416	319.333099
873.269287	323.375336
873.225098	351.972504
873.180969	335.547943
873.136780	364.133972
873.092590	306.805359
873.048462	290.395905
873.004272	339.422546
872.960083	339.368195
872.915894	347.490112
872.871765	314.734772
872.827576	318.771179
872.783386	347.323242
872.739197	330.925629
872.695007	355.381714
872.650818	392.082550
872.606567	343.017303
872.562439	383.791260
872.518188	367.400879
872.474060	342.852570
872.429810	355.040466
872.385559	342.742798
872.341370	359.006409
872.297241	354.869965
872.252930	362.969757
872.208740	379.222290
872.164551	379.161560
872.120361	423.940735
872.076050	387.191559
872.031860	366.754333
871.987610	399.290771
871.943359	415.521820
871.899109	362.505096
871.854919	358.374634
871.810608	358.317230
871.766418	337.904205
871.722168	358.202515
871.677917	333.726166
871.633667	362.156982
871.589417	333.619293
871.545166	341.701630
871.500916	361.983063
871.456665	313.126190
871.412354	349.669373
871.368103	296.764862
871.323853	329.234283
871.279602	341.373505
871.235229	316.938904
871.190979	280.324158
871.146790	324.961456
871.102417	341.154907
871.058105	337.039551
871.013916	304.505035
870.969604	336.931641
870.925293	373.406586
870.880981	316.533142
870.836731	373.287018
870.792419	336.715881
870.748047	255.538589
870.703796	312.274933
870.659485	316.279816
870.615173	340.554474
870.570862	287.803528
870.526550	312.074951
870.482178	287.711365
870.437866	287.665283
870.393555	259.262390
870.349243	311.875122
870.304932	242.980667
870.260559	263.186890
870.216248	271.241516
870.171875	206.434357
870.127563	242.825058
870.083252	222.553986
870.038879	246.793091
869.994507	242.708420
869.950195	242.669556
869.905823	214.323776
869.861511	246.635040
869.817078	202.127487
869.772766	202.095123
869.728394	202.062759
869.684021	254.558304
869.639648	201.998047
869.595276	153.493927
869.550903	205.972015
869.506531	205.939041
869.462158	213.980804
869.417786	181.652725
869.373413	185.659714
869.328979	137.204758
869.284607	165.426300
869.240234	229.946091
869.195862	116.971375
869.151428	153.248291
869.107056	181.449173
869.062622	157.230774
869.018250	185.421982
868.973877	120.908005
868.929443	120.888641
868.885010	165.188019
868.840637	124.878258
868.796143	104.719826
868.751770	157.054581
868.707336	120.791870
868.662903	140.901276
868.618469	140.878708
868.574036	116.709381
868.529663	124.738319
868.485229	80.463448
868.440735	156.878586
868.396301	92.503326
868.351868	124.658424
868.307434	140.720840
868.263000	116.578598
868.218506	112.540619
868.174072	120.559921
868.129578	96.432487
868.085144	136.590805
868.040710	116.485268
867.996277	136.547058
867.951721	136.525192
867.907288	108.399696
867.862793	92.325691
867.818359	92.310905
867.773865	156.502106
867.729370	92.281334
867.684937	144.417206
867.640442	124.339348
867.595947	68.175171
867.551514	80.193237
867.506958	104.234512
867.462463	96.201057
867.417969	112.216591
867.373535	72.127678
867.328979	88.141937
867.284485	116.168480
867.239929	80.103363
867.195435	92.104111
867.150940	104.101013
867.106445	100.081093
867.061890	108.070267
867.017395	112.054916
866.972839	100.033005
866.928345	96.016304
866.883789	64.000610
866.839294	95.985542
866.794739	91.971413
866.750183	131.937836
866.705688	103.934372
866.661133	95.924049
866.616638	87.916298
866.572021	95.893318
866.527527	75.903381
866.482910	87.874054
866.438416	79.872704
866.393860	63.887924
866.349304	123.763023
866.304749	95.801186
866.260193	91.794762
866.215637	111.732246
866.171021	95.755150
866.126465	63.826542
866.081909	79.770393
866.037292	103.684898
865.992676	75.757591
865.948181	71.758858
865.903564	79.719284
865.859009	111.589119
865.814392	79.693748
865.769836	99.601219
865.725159	87.635033
865.680603	95.586533
865.635986	103.535492
865.591431	107.500397
865.546753	91.559738
865.502197	95.525291
865.457581	75.612076
865.412964	79.578903
865.368347	91.501076
865.323792	87.508743
865.279114	131.242081
865.234497	83.504311
865.189880	91.442451
865.145264	103.353165
865.100647	123.209023
865.055969	83.450806
865.011353	79.464226
864.966675	75.478912
864.922058	111.214264
864.877441	99.282539
864.832825	127.061287
864.788147	99.250725
864.743469	87.326645
864.698853	115.093948
864.654175	123.011749
864.609497	103.154610
864.564880	95.204384
864.520203	126.918839
864.475586	91.208298
864.430908	79.298851
864.386169	107.036301
864.341492	114.946487
864.296875	114.928070
864.252136	79.248039
864.207520	110.929474
864.162781	99.028297
864.118103	122.775414
864.073425	114.836014
864.028687	118.776840
863.984009	118.757805
863.939331	154.360413
863.894653	114.762421
863.849976	106.830650
863.805237	146.374100
863.760559	130.528946
863.715820	110.734085
863.671143	138.395416
863.626404	130.466202
863.581665	98.822189
863.536987	102.758606
863.492249	110.645378
863.447571	94.823700
863.402832	98.758858
863.358093	102.692749
863.313354	106.625381
863.268616	126.350563
863.223877	138.173782
863.179138	122.362877
863.134338	122.343269
863.089600	157.836975
863.044861	102.577591
863.000183	110.450470
862.955444	110.432770
862.910645	94.641487
862.865906	98.569084
862.821106	118.263939
862.776367	82.771492
862.731628	90.639954
862.686890	94.565666
862.642090	94.550507
862.597290	102.413300
862.552490	106.335228
862.507751	55.127945
862.463013	102.364059
862.418213	70.856064
862.373352	82.652161
862.328613	66.898163
862.283813	70.821999
862.239014	78.678497
862.194275	106.198944
862.149475	58.989956
862.104675	70.776596
862.059814	78.628059
862.015076	74.684685
861.970215	70.742569
861.925415	66.801712
861.880615	86.435417
861.835754	90.349815
861.790955	106.045822
861.746155	102.101830
861.701294	82.453644
861.656494	86.366158
861.611694	78.502106
861.566833	90.262947
861.522034	86.324631
861.477173	66.694702
861.432373	78.451775
861.387512	82.361160
861.342651	70.583961
861.297852	78.414047
861.252991	62.721184
861.208130	50.952789
861.163269	58.782257
861.118408	70.527397
861.073608	86.186333
861.028687	82.255585
860.983826	66.577179
860.938965	50.903793
860.894165	70.470879
860.849243	54.801895
860.804382	58.706902
860.759460	39.131660
860.714600	39.125385
860.669739	70.414398
860.624817	70.403107
860.580017	78.213135
860.535095	50.830387
860.490173	62.550446
860.445251	66.449188
860.400391	58.622238
860.355469	62.520359
860.310608	39.068958
860.265686	46.875233
860.220764	62.490288
860.175903	85.910370
860.130920	66.374641
860.086060	50.748940
860.041138	54.643940
859.996216	58.537689
859.951294	58.528301
859.906372	50.716393
859.861450	62.410168
859.816467	58.500149
859.771606	50.691998
859.726685	74.076424
859.681702	54.573875
859.636780	42.872597
859.591858	58.453259
859.546936	46.755108
859.501953	77.912682
859.457031	62.320148
859.412109	35.049461
859.367065	27.256319
859.322144	42.824490
859.277161	38.925110
859.232239	46.702641
859.187256	50.586414
859.142273	50.578300
859.097290	54.460205
859.052429	50.562077
859.007385	42.776436
858.962402	38.881432
858.917419	42.762714
858.872498	38.868961
858.827454	66.066635
858.782532	50.513439
858.737488	54.390362
858.692505	23.306417
858.647522	58.256695
858.602478	27.182098
858.557495	50.472942
858.512512	65.992493
858.467529	50.456749
858.422485	69.851982
858.377502	42.680477
858.332458	62.070736
858.287537	31.030390
858.242493	58.172646
858.197449	62.040871
858.152405	31.015459
858.107422	54.268345
858.062378	50.383953
858.017334	65.876137
857.972290	54.242233
857.927307	58.107357
857.882263	46.478428
857.837219	50.343552
857.792236	50.335476
857.747131	38.713383
857.702087	42.577892
857.657043	58.051445
857.611938	38.694756
857.566956	54.163967
857.521912	61.891743
857.476807	61.881813
857.431763	42.536922
857.386719	54.129215
857.341614	57.986282
857.296570	54.111847
857.251465	38.645119
857.206421	46.366699
857.161316	46.359261
857.116272	54.077126
857.071167	50.206417
857.026123	34.752712
856.981018	65.633476
856.935974	19.300867
856.890869	54.033756
856.845764	57.884022
856.800659	46.299786
856.755554	50.150055
856.710510	30.856619
856.665344	53.990417
856.620239	50.125916
856.575134	53.973091
856.530029	50.109829
856.484924	50.101788
856.439758	53.947113
856.394653	61.643951
856.349548	73.190445
856.304443	61.624168
856.259338	46.210709
856.214233	46.203293
856.169006	50.045532
856.123962	42.339424
856.078796	38.484211
856.033630	57.717049
855.988525	65.402161
855.943420	65.391663
855.898254	49.997364
855.853027	49.989338
855.807922	34.602451
855.762756	49.973293
855.717590	38.434826
855.672485	57.642986
855.627258	65.318230
855.582153	46.099586
855.536987	57.615234
855.491821	38.403992
855.446655	53.756958
855.401489	49.909164
855.356262	30.708401
855.311096	53.731075
855.265930	42.210499
855.220764	42.203724
855.175537	46.033035
855.130371	49.861115
855.085205	49.853111
855.039978	65.182068
854.994812	42.169861
854.949646	49.829109
854.904358	49.821110
854.859192	45.981335
854.814026	53.636276
854.768799	30.644381
854.723511	49.789127
854.678406	45.951817
854.633179	42.115734
854.587952	38.280884
854.542725	53.584637
854.497498	34.441734
854.452209	30.609961
854.407043	65.035721
854.361755	42.075184
854.316589	30.595221
854.271301	42.061672
854.226074	53.524445
854.180908	34.403046
854.135681	53.507259
854.090332	30.570667
854.045105	42.027920
853.999878	38.201065
853.954651	26.736450
853.909363	26.732159
853.864136	26.727865
853.818848	22.905920
853.773621	30.536324
853.728333	57.246414
853.683044	45.789776
853.637817	68.673637
853.592529	22.887537
853.547241	64.837608
853.501953	38.133644
853.456726	61.004032
853.411438	45.745678
853.366089	41.926804
853.320801	49.541901
853.275513	49.533947
853.230225	53.335682
853.184937	57.136196
853.139648	45.701618
853.094421	60.925705
853.049072	26.650715
853.003784	45.679604
852.958435	45.672268
852.913147	53.275753
852.867859	49.462399
852.822571	45.650265
852.777222	45.642933
852.731873	57.044502
852.686584	64.640053
852.641296	57.026180
852.595886	41.812481
852.550598	41.805767
852.505249	41.799049
852.459900	53.190247
852.414551	34.188240
852.369263	45.576996
852.323914	68.354515
852.278564	45.562355
852.233215	45.555038
852.187927	37.956432
852.142517	22.770201
852.097168	26.560968
852.051819	60.701031
852.006470	37.932049
851.961121	45.511147
851.915771	26.543905
851.870361	37.913773
851.825012	41.698448
851.779602	41.691750
851.734253	30.316402
851.688843	60.623062
851.643555	34.094994
851.598145	37.877243
851.552734	41.658272
851.507324	45.438087
851.461975	41.644886
851.416565	30.282326
851.371216	37.846825
851.325806	45.408894
851.280396	26.484264
851.235046	45.394302
851.189636	26.475756
851.144165	49.161358
851.098755	34.029320
851.053345	52.925991
851.007935	18.899101
850.962524	34.012917
850.917175	45.343269
850.871765	41.557983
850.826294	30.219131
850.780945	60.428555
850.735474	15.104711
850.690002	33.980137
850.644592	30.199713
850.599182	30.194860
850.553711	49.058762
850.508301	52.824024
850.462891	33.952843
850.417419	64.122841
850.372009	26.399281
850.326538	45.248634
850.281067	37.701138
850.235657	41.464584
850.190186	26.382313
850.144714	45.219555
850.099182	41.444595
850.053772	48.972107
850.008301	45.197754
849.962830	33.892868
849.917358	37.652691
849.871887	37.646637
849.826355	33.876526
849.780945	37.634537
849.735474	45.154186
849.690002	26.335707
849.644470	75.232780
849.598999	37.610344
849.553528	52.646019
849.507996	41.358082
849.462524	33.832989
849.417053	30.068935
849.371521	33.822113
849.325989	26.301859
849.280518	30.054436
849.234985	22.537203
849.189514	22.533581
849.143982	37.549931
849.098450	37.543892
849.052979	48.799213
849.007446	41.285004
848.961914	63.793842
848.916443	26.263828
848.870911	56.270584
848.825378	26.255384
848.779846	41.251827
848.734253	44.994759
848.688721	29.991682
848.643250	33.735218
848.597656	48.720814
848.552124	44.965828
848.506592	26.225849
848.461060	33.713528
848.415466	26.217415
848.369934	37.447430
848.324341	44.929688
848.278809	33.691849
848.233276	29.943493
848.187683	29.938679
848.142151	52.384262
848.096558	26.187920
848.050964	67.329536
848.005371	37.399281
847.959839	48.611248
847.914246	48.603432
847.868652	22.428745
847.823120	29.900185
847.777466	52.316906
847.731934	44.835850
847.686340	41.092922
847.640747	33.616074
847.595093	22.407110
847.549500	63.476604
847.503906	52.266441
847.458313	59.723469
847.412720	41.053280
847.367188	37.315163
847.321533	37.309162
847.275879	26.112211
847.230286	52.216022
847.184692	26.103811
847.139038	33.556644
847.093445	63.374580
847.047791	44.727802
847.002197	52.174042
846.956543	29.808941
846.910950	48.431736
846.865356	40.974110
846.819641	52.140476
846.773987	37.237206
846.728333	37.231216
846.682739	52.115318
846.637085	22.331543
846.591431	44.655899
846.545776	40.927990
846.500183	29.761023
846.454468	29.756233
846.408813	37.189308
846.363159	37.183323
846.317505	44.612812
846.271851	33.454224
846.226135	40.881916
846.180481	29.727520
846.134827	44.584106
846.089172	44.576931
846.043457	55.712200
845.997803	55.703236
845.952148	44.555416
845.906433	33.411186
845.860718	29.694052
845.815002	40.822754
845.769348	29.684496
845.723633	22.259790
845.677979	33.384312
845.632324	63.049107
845.586548	37.081741
845.540894	33.368198
845.495178	66.725655
845.449463	51.889378
845.403748	44.469452
845.358032	48.167488
845.312317	25.932165
845.266602	59.263981
845.220886	29.627222
845.175110	55.542099
845.129456	29.617685
845.083679	44.419376
845.037964	40.711208
844.992249	29.603386
844.946533	40.698105
844.900818	33.293091
844.854980	36.986366
844.809265	25.886290
844.763550	66.554031
844.717773	29.574806
844.672058	48.051327
844.626282	36.956608
844.580505	33.255592
844.534729	25.861298
844.489014	44.326515
844.443237	33.239536
844.397522	44.312244
844.351746	36.920925
844.305969	40.606480
844.260193	44.290848
844.214417	33.212788
844.168640	40.586872
844.122803	44.269459
844.077087	59.016441
844.031250	59.006939
843.985474	40.560738
843.939697	36.867462
843.893982	29.489222
843.848145	44.226707
843.802368	25.794760
843.756531	47.896839
843.710754	36.837791
843.664917	33.148674
843.619141	44.191113
843.573303	33.137997
843.527527	84.672356
843.481689	40.488953
843.435913	25.761549
843.390137	47.835171
843.344299	36.790359
843.298462	36.784435
843.252625	44.134212
843.206787	47.804367
843.160950	40.443333
843.115112	55.141117
843.069336	47.781273
843.023438	47.773579
842.977661	51.440182
842.931763	55.105602
842.885986	55.096729
842.840088	44.070282
842.794250	36.719318
842.748413	33.042065
842.702576	36.707493
842.656677	47.712055
842.610840	44.034801
842.565002	22.013855
842.519104	40.352230
842.473206	58.684700
842.427429	55.008045
842.381531	51.332569
842.335632	47.658279
842.289795	47.650600
842.243835	47.642925
842.197998	25.649750
842.152161	51.291237
842.106262	47.619904
842.060303	51.274712
842.014465	54.928337
841.968567	36.612991
841.922668	51.249931
841.876770	18.300598
841.830933	36.595299
841.784973	54.884102
841.739075	43.900208
841.693237	47.550896
841.647278	32.914547
841.601318	3.656583
841.555420	47.527912
841.509521	25.587830
841.463562	65.786674
841.417664	36.542263
841.371765	47.497288
841.325867	69.407921
841.279907	40.177059
841.234009	36.518715
841.188049	36.512829
841.142090	40.157639
841.096130	47.451378
841.050232	40.144695
841.004272	43.787155
840.958374	51.076782
840.912415	40.125290
840.866455	58.354649
840.820496	58.345245
840.774536	40.105888
840.728638	47.390232
840.682678	32.803333
840.636719	40.086502
840.590759	58.298237
840.544800	40.073578
840.498779	54.636978
840.452820	47.344418
840.406799	25.489038
840.360901	36.407040
840.314880	50.961643
840.268921	7.279061
840.222900	43.667324
840.176941	32.745213
840.130981	54.566559
840.084961	32.734657
840.039001	50.912369
839.992981	69.084213
839.947021	47.260529
839.901001	61.792263
839.854980	50.879543
839.808960	39.970337
839.763000	39.963894
839.716980	54.487431
839.670959	43.582916
839.625000	39.944565
839.578918	39.938126
839.532959	36.301533
839.486877	43.554813
839.440857	36.289825
839.394836	43.540768
839.348816	36.278122
839.302795	72.544540
839.256775	54.399632
839.210754	58.016918
839.164673	39.880199
839.118652	47.123543
839.072571	39.867336
839.026611	39.860909
838.980530	54.347015
838.934509	50.715702
838.888428	36.219658
838.842407	68.806252
838.796265	32.587177
838.750244	47.062775
838.704224	39.815926
838.658142	50.666641
838.612061	50.658470
838.566040	68.739685
838.519958	28.938358
838.473877	39.783825
838.427734	50.625790
838.381714	65.079803
838.335632	54.224419
838.289551	36.143780
838.243469	46.979336
838.197388	25.292484
838.151245	46.964180
838.105225	32.508415
838.059143	32.503174
838.013000	46.941452
837.966919	43.323582
837.920837	50.536022
837.874695	39.700470
837.828613	39.694061
837.782471	39.687660
837.736450	36.073868
837.690308	32.461243
837.644165	61.305786
837.598083	50.478973
837.551880	43.260708
837.505798	46.858204
837.459717	43.246750
837.413513	50.446396
837.367432	21.616396
837.321289	32.419361
837.275146	39.617268
837.229004	14.403955
837.182861	28.803261
837.136780	46.797745
837.090637	35.992455
837.044434	39.585312
836.998352	46.775089
836.952148	57.560051
836.906006	21.581535
836.859863	35.963421
836.813721	46.744900
836.767578	50.332535
836.721375	43.135208
836.675171	32.346184
836.629028	39.527843
836.582825	43.114326
836.536743	50.291927
836.490540	61.058910
836.444336	57.457932
836.398132	32.314869
836.351990	43.079536
836.305786	46.661964
836.259644	32.299221
836.213440	43.058678
836.167236	68.165230
836.121094	46.631840
836.074890	39.451340
836.028625	32.273155
835.982422	32.267944
835.936218	28.677988
835.890076	57.346714
835.843872	28.668728
835.797668	57.328197
835.751404	39.406773
835.705261	25.072987
835.658997	50.137878
835.612793	50.129780
835.566528	28.640963
835.520325	46.534050
835.474121	68.000320
835.427856	60.832565
835.381653	42.933701
835.335388	50.081226
835.289185	57.226444
835.242920	39.336826
835.196716	57.207962
835.150513	25.024441
835.104248	46.466457
835.057922	60.754013
835.011719	39.305073
834.965454	42.871334
834.919250	53.580513
834.872986	39.286030
834.826660	53.563202
834.780457	39.273338
834.734192	35.697266
834.687927	57.106400
834.641663	42.822884
834.595398	35.679970
834.549072	46.376469
834.502869	32.101601
834.456543	49.927753
834.410278	53.485378
834.364014	60.606972
834.317688	60.597179
834.271423	39.203606
834.225159	42.760658
834.178833	53.442188
834.132568	32.060131
834.086243	39.178276
834.039978	42.733028
833.993652	39.165615
833.947388	49.839092
833.901062	39.152958
833.854736	32.029064
833.808472	39.140305
833.762146	17.788174
833.715820	56.912956
833.669495	46.234306
833.623169	32.003193
833.576843	39.108692
833.530518	24.883327
833.484192	35.541866
833.437866	53.304180
833.391541	39.083416
833.345215	28.419708
833.298889	39.070782
833.252563	24.859207
833.206177	53.261120
833.159851	46.152176
833.113525	39.045528
833.067200	49.686275
833.020813	28.387569
832.974487	46.122341
832.928101	42.567589
832.881775	39.013981
832.835388	46.099979
832.789062	74.457161
832.742676	46.085075
832.696289	56.710922
832.649963	63.789474
832.603577	53.149303
832.557190	53.140709
832.510803	46.047836
832.464417	31.874117
832.418091	42.491951
832.371643	46.025505
832.325317	53.097763
832.278870	53.089180
832.232483	42.464474
832.186096	56.610146
832.139709	45.988304
832.093323	49.517860
832.046936	49.509853
832.000549	56.573540
831.954102	60.099663
831.907776	31.812325
831.861328	31.807178
831.814880	56.536953
831.768494	38.862869
831.722046	45.921417
831.675659	42.382145
831.629272	45.906563
831.582825	56.491249
831.536438	45.891716
831.489929	56.472977
831.443542	67.050812
831.397156	10.585258
831.350708	49.389881
831.304260	59.963726
831.257812	42.320488
831.211365	70.522736
831.164917	66.985764
831.118530	28.199970
831.072021	52.866390
831.025574	49.333981
830.979065	28.186285
830.932678	38.749874
830.886169	45.787895
830.839722	49.302063
830.793274	31.689056
830.746826	35.204365
830.700378	52.798004
830.653931	45.750866
830.607422	45.743465
830.560974	52.772381
830.514465	31.658304
830.468018	63.306366
830.421509	24.615158
830.375061	49.222351
830.328552	56.245010
830.282043	56.235909
830.235535	52.712635
830.189087	35.136070
830.142578	38.643421
830.096130	38.637165
830.049622	31.607111
830.003113	59.692657
829.956543	49.150703
829.910095	31.591768
829.863525	42.115540
829.817078	38.599663
829.770569	45.610401
829.723999	49.110943
829.677490	28.058853
829.630981	52.601833
829.584473	31.555990
829.537964	38.562191
829.491455	52.576294
829.444885	38.549706
829.398376	77.086929
829.351868	70.067680
829.305298	59.547890
829.258789	31.520250
829.212219	38.518513
829.165710	59.518974
829.119141	24.503845
829.072571	48.999756
829.026001	48.991821
828.979492	48.983887
828.932922	66.467369
828.886353	41.972595
828.839783	31.474348
828.793274	48.952171
828.746704	38.456192
828.700134	38.449963
828.653564	27.959082
828.606995	87.357979
828.560425	38.431286
828.513794	45.411438
828.467285	59.374573
828.420715	34.920563
828.374146	52.372360
828.327515	48.872955
828.280945	31.413239
828.234375	52.346920
828.187744	45.359982
828.141113	48.841297
828.094604	41.857189
828.047974	24.412739
828.001404	38.356663
827.954773	24.404831
827.908142	45.315914
827.861572	41.823299
827.814941	24.392973
827.768311	41.809750
827.721680	38.319397
827.675110	31.347153
827.628479	48.754337
827.581909	41.782661
827.535278	76.589142
827.488586	20.884563
827.441956	31.321768
827.395386	34.796326
827.348694	34.790688
827.302063	45.220566
827.255493	66.080887
827.208862	52.160667
827.162170	41.721775
827.115540	41.715012
827.068848	24.329815
827.022217	48.651745
826.975647	38.220177
826.928955	52.109974
826.882263	34.734352
826.835571	34.728725
826.789001	52.084644
826.742249	31.245722
826.695618	34.711842
826.648987	34.706215
826.602295	31.230532
826.555603	52.042450
826.508972	27.751474
826.462280	52.025578
826.415588	41.613716
826.368896	41.606972
826.322266	38.133541
826.275574	48.525730
826.228882	48.517864
826.182190	48.509998
826.135498	58.895451
826.088806	34.638767
826.042053	41.559780
825.995361	31.164782
825.948669	41.546307
825.901978	38.077938
825.855286	20.766417
825.808594	41.526100
825.761841	48.439262
825.715149	41.512634
825.668396	55.341206
825.621765	31.124380
825.575012	51.865555
825.528320	58.771431
825.481567	44.935574
825.434814	58.752373
825.388123	38.010075
825.341370	31.094110
825.294617	55.269451
825.247864	24.176464
825.201172	44.891865
825.154419	51.789906
825.107727	34.521004
825.060974	17.257702
825.014160	37.960789
824.967468	27.603367
824.920654	37.948475
824.873962	31.043715
824.827148	37.936165
824.780396	65.515472
824.733643	51.714352
824.686890	51.705963
824.640137	41.358059
824.593384	48.243240
824.546631	31.008482
824.499817	62.006901
824.453003	24.109882
824.406311	51.655651
824.359497	41.317818
824.312744	58.524078
824.265930	41.304409
824.219177	55.063610
824.172302	24.086422
824.125549	55.045746
824.078735	44.717411
824.031982	41.270912
823.985168	34.386845
823.938354	37.819393
823.891541	41.250824
823.844788	41.244129
823.797974	48.110340
823.751221	37.794846
823.704346	34.353374
823.657532	61.826042
823.610718	65.250229
823.563904	20.601992
823.517090	41.197296
823.470276	44.623158
823.423462	20.591961
823.376648	30.882929
823.329773	37.739674
823.282959	68.606453
823.236084	58.306019
823.189331	48.008926
823.142456	41.143826
823.095642	30.852861
823.048767	37.702930
823.001953	65.112671
822.955017	41.117115
822.908203	51.388050
822.861328	61.655647
822.814514	47.946609
822.767639	51.363026
822.720764	34.236458
822.673950	44.500168
822.627075	44.492943
822.580200	51.329674
822.533386	41.057072
822.486450	44.471272
822.439636	44.464050
822.392700	27.358047
822.345825	68.384010
822.298950	47.861034
822.252075	71.779892
822.205200	44.427956
822.158325	51.254700
822.111450	61.495651
822.064514	58.069794
822.017639	44.399101
821.970764	44.391888
821.923828	44.384678
821.876953	44.377468
821.830078	47.783356
821.783142	37.537968
821.736267	61.415787
821.689331	47.760075
821.642456	47.752316
821.595520	40.923908
821.548584	44.327030
821.501648	64.775131
821.454712	37.495300
821.407837	64.754089
821.360901	47.705788
821.314026	27.256020
821.267029	34.064491
821.220154	68.117912
821.173157	40.864105
821.126221	37.452675
821.079285	61.276237
821.032349	37.440506
820.985413	64.659454
820.938477	27.220610
820.891541	51.030350
820.844604	47.620586
820.797668	40.811012
820.750671	40.804379
820.703735	40.797745
820.656738	40.791115
820.609802	54.379314
820.562866	33.981548
820.515930	44.168831
820.468933	37.367554
820.421997	37.361477
820.375000	40.751350
820.328003	47.535515
820.281006	47.527786
820.234009	50.914352
820.187073	44.118599
820.140076	16.965933
820.093140	54.282158
820.046082	50.881252
819.999146	54.264511
819.952148	47.473728
819.905090	44.075581
819.858093	54.238049
819.811096	47.450573
819.764099	47.442860
819.717163	40.658695
819.670105	47.427433
819.623108	50.806843
819.576111	60.958298
819.529114	33.860214
819.482117	40.625648
819.435059	37.234123
819.388062	37.228065
819.341064	60.908749
819.294006	64.282112
819.247009	54.123501
819.199951	43.968189
819.152954	47.342659
819.105896	33.810684
819.058838	40.566223
819.011841	50.699528
818.964783	27.035351
818.917725	50.683037
818.870667	40.539833
818.823669	33.777699
818.776611	64.167191
818.729553	67.533417
818.682434	40.513458
818.635376	37.131298
818.588379	40.500278
818.541321	53.991585
818.494263	43.861027
818.447144	37.107140
818.400146	37.101101
818.353027	50.584179
818.306030	50.575947
818.258911	40.454174
818.211853	50.559490
818.164795	37.070927
818.117676	47.173500
818.070618	30.320887
818.023499	57.263466
817.976440	47.150471
817.929321	50.510143
817.882202	43.768333
817.835144	37.028713
817.788025	26.925591
817.740967	37.016663
817.693848	50.469051
817.646729	40.368668
817.599670	47.089115
817.552551	50.444408
817.505432	47.073784
817.458374	26.894928
817.411255	50.419781
817.364075	36.968487
817.316956	40.322693
817.269897	57.114513
817.222717	30.232172
817.175598	43.661583
817.128479	53.728584
817.081360	30.217409
817.034180	40.283318
816.987061	60.415138
816.939941	43.626053
816.892822	36.908340
816.845642	46.966602
816.798523	50.313168
816.751404	43.597645
816.704224	33.531189
816.657104	43.583443
816.609985	53.632427
816.562744	30.163326
816.515625	40.211220
816.468506	50.255836
816.421265	50.247654
816.374146	50.239468
816.326965	40.185028
816.279785	43.526691
816.232605	46.867264
816.185486	70.289444
816.138306	43.505424
816.091125	56.882439
816.043945	40.145771
815.996765	46.829102
815.949585	40.132690
815.902405	43.469997
815.855164	70.209328
815.807983	30.084810
815.760803	20.053272
815.713623	30.075006
815.666443	66.822456
815.619263	30.065208
815.572083	30.060308
815.524841	56.771332
815.477661	43.406296
815.430420	56.752831
815.383240	60.081440
815.335999	36.710453
815.288757	56.725090
815.241577	30.026035
815.194336	50.035236
815.147156	50.027084
815.099915	63.357311
815.052673	36.674568
815.005432	53.336136
814.958252	16.664825
814.911011	49.986328
814.863770	33.318787
814.816528	49.970032
814.769287	33.307926
814.722046	46.623493
814.674866	29.967360
814.627563	46.608295
814.580322	43.272076
814.533081	39.936943
814.485840	49.913036
814.438599	26.615946
814.391296	56.549667
814.344055	53.214539
814.296753	43.229763
814.249573	49.872360
814.202209	36.567101
814.154968	39.884880
814.107727	29.908781
814.060486	56.485153
814.013184	36.543255
813.965881	56.466732
813.918640	49.815460
813.871338	56.448315
813.824097	59.759056
813.776794	59.749310
813.729431	36.507511
813.682190	43.138203
813.634949	53.084515
813.587585	56.393097
813.540283	36.483700
813.492981	56.374702
813.445740	39.787415
813.398376	43.096001
813.351074	39.774437
813.303833	56.337925
813.256531	56.328735
813.209167	36.442059
813.161865	39.748486
813.114502	52.989338
813.067261	52.980690
813.019958	46.350540
812.972595	52.963402
812.925232	29.787054
812.877930	56.255253
812.830566	39.703110
812.783325	56.236897
812.735962	56.227718
812.688599	59.525517
812.641296	39.677200
812.593933	52.894302
812.546631	59.496380
812.499207	39.657780
812.451904	46.259857
812.404541	36.341099
812.357239	49.547955
812.309875	29.723921
812.262512	39.625427
812.215149	59.428436
812.167786	42.913532
812.120361	56.108536
812.073059	49.499447
812.025635	32.994244
811.978333	29.689974
811.930969	42.878517
811.883545	36.275898
811.836182	42.864517
811.788818	46.154251
811.741394	36.258133
811.694031	42.843525
811.646667	39.541412
811.599304	26.356636
811.551880	62.586792
811.504456	55.989563
811.457092	46.101524
811.409668	55.971279
811.362305	36.210796
811.314941	29.622177
811.267517	52.653046
811.220154	46.063892
811.172729	26.317924
811.125305	49.338051
811.077881	42.752659
811.030457	32.881290
810.983032	49.313877
810.935608	46.018768
810.888184	23.005625
810.840820	49.289715
810.793396	36.139889
810.745911	52.558521
810.698486	62.403049
810.651062	49.257515
810.603638	42.682873
810.556213	49.241421
810.508728	36.104477
810.461365	45.943645
810.413879	52.498444
810.366394	32.806168
810.318970	49.201210
810.271545	45.913624
810.224060	52.464138
810.176636	39.341675
810.129211	52.446995
810.081726	42.606220
810.034302	55.706718
809.986816	45.868626
809.939331	22.930565
809.891907	45.853634
809.844421	32.747242
809.796936	42.564457
809.749451	45.831154
809.702026	45.823662
809.654480	32.725838
809.607056	58.896877
809.559570	19.629084
809.512085	42.522728
809.464600	42.515778
809.417114	45.778736
809.369568	55.579380
809.322144	49.032612
809.274597	39.219677
809.227173	58.819893
809.179626	42.474091
809.132141	42.467144
809.084656	48.992538
809.037109	32.656353
808.989563	52.241619
808.942078	45.703941
808.894592	35.904369
808.847107	19.580999
808.799561	42.418560
808.752014	39.149189
808.704529	35.880886
808.656982	45.659115
808.609497	29.347488
808.561951	68.466270
808.514404	48.896481
808.466858	45.629253
808.419373	58.656586
808.371826	78.195984
808.324280	39.091599
808.276733	39.085205
808.229187	39.078808
808.181641	35.816383
808.134094	65.110039
808.086548	71.609329
808.039001	35.798805
807.991455	52.062473
807.943909	48.800583
807.896301	48.792599
807.848755	61.793842
807.801208	29.265978
807.753662	52.019894
807.706055	48.760670
807.658508	26.001434
807.610901	32.496475
807.563416	45.487621
807.515747	58.474510
807.468201	48.720783
807.420654	48.712811
807.373108	61.692795
807.325439	68.175613
807.277832	51.934822
807.230347	42.190136
807.182739	71.387009
807.135132	45.420658
807.087463	16.219009
807.039917	35.675980
806.992310	51.883839
806.944702	45.390926
806.897156	48.625172
806.849548	55.099506
806.801880	25.924934
806.754272	55.081467
806.706665	45.353783
806.659058	55.063431
806.611450	48.577427
806.563843	74.473190
806.516235	29.136911
806.468567	42.079758
806.420959	45.309242
806.373291	35.594288
806.325684	64.706291
806.278076	51.756554
806.230469	48.513824
806.182800	45.272152
806.135132	54.964325
806.087524	35.559326
806.039856	74.339142
805.992249	48.474106
805.944580	48.466167
805.896973	58.149876
805.849243	67.830406
805.801636	71.048782
805.753967	41.976498
805.706299	45.198051
805.658691	64.558067
805.611023	32.273746
805.563354	54.856377
805.515625	32.263172
805.468018	61.289982
805.420349	38.703121
805.372681	54.820435
805.324951	51.587250
805.277283	58.026146
805.229614	48.347198
805.181885	58.007130
805.134216	67.663895
805.086548	51.544994
805.038879	61.199650
804.991211	57.969116
804.943481	54.739635
804.895752	64.389015
804.848083	57.940617
804.800354	61.149513
804.752686	64.357361
804.705017	73.998833
804.657288	51.469009
804.609619	45.028000
804.561890	48.236378
804.514160	54.658936
804.466431	28.932339
804.418701	48.212658
804.371033	51.418404
804.323303	61.049347
804.275513	48.188950
804.227844	61.029327
804.180115	38.538517
804.132385	41.743217
804.084595	38.525883
804.036865	54.569382
803.989197	60.979309
803.941467	35.298019
803.893738	22.458693
803.845947	64.157173
803.798218	28.865992
803.750488	32.068066
803.702759	35.269085
803.654968	38.469055
803.607178	44.873203
803.559448	48.070545
803.511719	41.654305
803.463928	35.240170
803.416199	67.265648
803.368408	44.836411
803.320679	60.839432
803.272888	44.821701
803.225159	41.613323
803.177307	51.207996
803.129578	63.999493
803.081787	47.991745
803.033997	73.575264
802.986206	47.975998
802.938416	60.759624
802.890686	60.749653
802.842896	38.361908
802.795105	51.140816
802.747253	63.915527
802.699524	31.952520
802.651672	67.089279
802.603882	67.078270
802.556091	47.905186
802.508301	63.863098
802.460510	47.889462
802.412720	67.034241
802.364929	67.023239
802.317078	60.630119
802.269226	51.048561
802.221436	60.610214
802.173645	57.410778
802.125793	63.779282
802.078003	63.768810
802.030151	41.442921
801.982361	63.747871
801.934509	66.924278
801.886719	47.795208
801.838867	60.530655
801.791016	54.150112
801.743164	76.434669
801.695312	85.974876
801.647522	79.593300
801.599609	70.030602
801.551819	66.836411
801.503967	47.732456
801.456055	63.632820
801.408203	73.165726
801.360352	63.611919
801.312500	76.321770
801.264709	63.591026
801.216797	79.475723
801.168945	73.105659
801.121094	95.339546
801.073181	79.436569
801.025391	69.892700
800.977478	82.586891
800.929565	85.749222
800.881714	88.910507
800.833862	79.371338
800.785950	79.358299
800.738037	57.128586
800.690247	60.292488
800.642334	104.701332
800.594421	76.133911
800.546570	72.949677
800.498596	85.622498
800.450745	66.584335
800.402832	47.552422
800.354980	79.241013
800.307068	95.073593
800.259155	72.877769
800.211243	91.874260
800.163330	85.524048
800.115417	120.347397
800.067505	98.162003
800.019653	82.315887
799.971680	98.129730
799.923767	88.618736
799.875854	75.946434
799.827942	56.950459
799.779968	66.431282
799.732117	94.886223
799.684143	85.383560
799.636230	63.236687
799.588257	75.871544
799.540344	97.984634
799.492371	69.526047
799.444458	66.354858
799.396545	63.184715
799.348572	66.333038
799.300598	94.745903
799.252686	75.784256
799.204712	82.086113
799.156738	75.759331
799.108826	78.902992
799.060852	91.512421
799.012878	63.101631
798.964966	59.936691
798.916992	85.159180
798.869019	107.219849
798.821045	75.672150
798.773071	72.507217
798.725098	66.191345
798.677124	78.786263
798.629150	56.716774
798.581116	56.707443
798.533203	50.398323
798.485168	59.838165
798.437256	62.977177
798.389221	44.076771
798.341248	78.695564
798.293274	88.124535
798.245300	84.963242
798.197266	81.802994
798.149292	78.643784
798.101257	97.502243
798.053223	34.591877
798.005310	59.739769
797.957275	62.873619
797.909241	72.292763
797.861206	56.567631
797.813232	59.700451
797.765198	56.549011
797.717224	72.245178
797.669189	56.530396
797.621155	75.361450
797.573120	34.534981
797.525146	47.085400
797.477112	50.216160
797.429016	47.069901
797.381042	43.924671
797.333008	65.876160
797.284912	56.455982
797.236877	59.582615
797.188843	28.218697
797.140808	53.293205
797.092773	62.687565
797.044800	65.811104
796.996704	72.066956
796.948608	62.656601
796.900635	43.852398
796.852539	46.976971
796.804504	68.888214
796.756409	34.438431
796.708374	40.693264
796.660339	31.297354
796.612244	53.196735
796.564209	31.287043
796.516113	59.435589
796.468018	65.681145
796.419983	40.653057
796.371887	31.266432
796.323792	40.639664
796.275757	37.507355
796.227600	34.376080
796.179504	31.245832
796.131470	40.612888
796.083374	46.853302
796.035278	40.599506
795.987183	40.592815
795.939087	40.586124
795.891052	59.308407
795.842896	34.330788
795.794800	28.084198
795.746643	65.518997
795.698547	34.313816
795.650452	37.427086
795.602356	74.841835
795.554260	24.943165
795.506165	46.760727
795.458069	56.103622
795.409912	56.094372
795.361816	56.085125
795.313660	43.614574
795.265564	43.607384
795.217407	37.371593
795.169312	49.820576
795.121216	49.812363
795.073059	49.804150
795.024902	37.346954
794.976746	46.675995
794.928589	43.557079
794.880493	27.996361
794.832336	43.542713
794.784180	43.535534
794.736023	52.855858
794.687866	43.521175
794.639709	55.946568
794.591553	46.614449
794.543396	59.035233
794.495239	34.172653
794.447144	27.954832
794.398926	49.689281
794.350830	37.260815
794.302612	37.254669
794.254456	34.144478
794.206238	34.138847
794.158081	46.545292
794.109924	52.742626
794.061707	52.733925
794.013550	21.710386
793.965393	40.312637
793.917236	55.808289
793.869019	40.299335
793.820862	27.894936
793.772583	24.791407
793.724426	37.180973
793.676270	21.685322
793.628052	40.266094
793.579895	43.356327
793.531677	30.963696
793.483459	46.437878
793.435242	34.048820
793.387085	34.043201
793.338806	40.226234
793.290649	30.938148
793.242371	34.026348
793.194214	27.835142
793.145996	37.107395
793.097778	24.734180
793.049561	37.095146
793.001343	46.361275
792.953064	33.992657
792.904846	40.166504
792.856628	40.159874
792.808411	30.887110
792.760193	55.587616
792.711914	30.876909
792.663696	40.133354
792.615417	30.866713
792.567200	37.033939
792.518982	43.199123
792.470703	58.617702
792.422485	43.184856
792.374207	43.177723
792.325928	43.170593
792.277710	40.080357
792.229492	46.238926
792.181152	40.067116
792.132935	33.897343
792.084656	61.621353
792.036377	43.127823
791.988098	43.120697
791.939819	36.954491
791.891602	40.027416
791.843323	40.020805
791.795044	36.936176
791.746765	49.240097
791.698486	43.077965
791.650208	49.223827
791.601929	43.063728
791.553650	46.132088
791.505371	58.424320
791.457031	30.744560
791.408752	21.517635
791.360474	55.321915
791.312195	52.239841
791.263916	58.376053
791.215576	39.934910
791.167297	52.213940
791.118958	36.850807
791.070679	39.915108
791.022339	42.978394
790.974060	21.485645
790.925720	52.170795
790.877441	49.093807
790.829102	33.746414
790.780823	33.740833
790.732422	61.336826
790.684143	30.663342
790.635803	42.921581
790.587524	30.653202
790.539185	36.777760
790.490845	33.707371
790.442505	30.637997
790.394104	49.012688
790.345825	76.569656
790.297424	39.809635
790.249146	30.617733
790.200745	52.041534
790.152405	45.911407
790.104065	30.602541
790.055725	45.896221
790.007385	15.296209
789.958984	21.411150
789.910706	45.873444
789.862305	45.865856
789.813904	39.743832
789.765564	45.850681
789.717224	36.674477
789.668823	30.557005
789.620483	51.938313
789.572083	27.492205
789.523682	39.704391
789.475342	36.644142
789.427002	33.584904
789.378601	30.526678
789.330200	36.625954
789.281799	42.723206
789.233459	21.358067
789.185059	33.557121
789.136658	30.501425
789.088257	45.744564
789.039856	36.589592
788.991455	30.486280
788.943115	27.433111
788.894714	21.333332
788.846252	33.518257
788.797913	30.466097
788.749451	30.461054
788.701050	30.456011
788.652649	51.766644
788.604248	42.624294
788.555847	27.396795
788.507385	45.653763
788.458984	39.560043
788.410522	45.638645
788.362122	33.462799
788.313660	33.457256
788.265259	36.492779
788.216858	45.608418
788.168396	36.480694
788.119995	27.355988
788.071533	36.468609
788.023071	42.539661
787.974670	36.456528
787.926208	21.262785
787.877747	30.370375
787.829346	36.438412
787.780884	54.648563
787.732422	24.284225
787.684021	21.245178
787.635559	51.586884
787.587097	15.170098
787.538635	45.502754
787.490173	30.330143
787.441711	42.455162
787.393250	27.288082
787.344788	39.409588
787.296326	30.310043
787.247803	18.183012
787.199341	21.209997
787.150879	33.324471
787.102417	21.202967
787.053894	33.313427
787.005432	36.335896
786.956909	24.219915
786.908508	15.134937
786.859985	39.344315
786.811523	39.337791
786.763000	24.203857
786.714478	21.174864
786.666016	51.416145
786.617493	54.431599
786.569031	15.117381
786.520508	12.091900
786.471985	48.359577
786.423523	33.241695
786.375000	24.171770
786.326477	33.230675
786.277954	33.225163
786.229431	30.199684
786.180908	30.194675
786.132446	45.284500
786.083923	30.184660
786.035339	39.233547
785.986816	27.157183
785.938354	30.169641
785.889771	36.197563
785.841248	24.127707
785.792725	33.170094
785.744202	36.179550
785.695679	27.130161
785.647095	27.125660
785.598572	30.134623
785.550049	30.129622
785.501465	15.062311
785.452942	36.143547
785.404358	33.126087
785.355835	27.098665
785.307251	30.104631
785.258728	36.119564
785.210205	15.047320
785.161621	9.026894
785.113037	30.084652
785.064453	39.103554
785.015930	6.014933
784.967346	15.034837
784.918762	24.051744
784.870239	45.089535
784.821594	30.054701
784.773071	48.079536
784.724487	24.035778
784.675903	24.031788
784.627319	39.045170
784.578735	36.035713
784.530151	21.017342
784.481567	36.023746
784.432983	24.011843
784.384399	18.005892
784.335754	15.002418
784.287170	14.999927
784.238586	47.991795
784.190002	32.988876
784.141357	29.984909
784.092773	44.969891
784.044128	23.979959
783.995605	17.981981
783.946960	23.971992
783.898376	29.960014
783.849670	26.959534
783.801086	29.950060
783.752502	26.950577
783.703857	0.000000
783.655212	29.935135
783.606628	38.909210
783.558044	26.932671
783.509338	26.928196
783.460693	26.923721
783.412109	26.919247
783.363464	47.848484
783.314819	26.910301
783.266174	32.884903
783.217529	32.879436
783.168884	11.954171
783.120300	20.916323
783.071594	29.875496
783.022949	23.896423
782.974304	17.919338
782.925659	35.832722
782.877014	23.884508
782.828369	35.820808
782.779663	44.768566
782.731018	23.872599
782.682373	41.770103
782.633667	23.864662
782.585022	20.878107
782.536377	38.767181
782.487671	20.871164
782.439026	44.716488
782.390320	26.825430
782.341614	20.860754
782.292969	35.755344
782.244263	20.853817
782.195557	23.828970
782.146912	23.825006
782.098206	23.821043
782.049500	14.885676
782.000854	23.813120
781.952087	17.856869
781.903442	20.829548
781.854736	32.726704
781.806030	20.822618
781.757324	35.689980
781.708618	35.684040
781.659912	26.758579
781.611206	32.699490
781.562500	29.721861
781.513794	38.631989
781.465027	32.683167
781.416382	47.531242
781.367615	20.791458
781.318909	26.727427
781.270203	20.784538
781.221436	11.874903
781.172791	14.841158
781.124023	20.774162
781.075256	14.836218
781.026550	38.567745
780.977844	23.730047
780.929077	41.520668
780.880310	35.583221
780.831604	29.647747
780.782837	38.535656
780.734131	26.674089
780.685364	23.706354
780.636597	35.553612
780.587891	26.660769
780.539062	35.541771
780.490356	20.729248
780.441589	23.686625
780.392822	32.563683
780.344055	17.759052
780.295288	20.715443
780.246521	11.835424
780.197815	35.500359
780.148987	11.831483
780.100281	26.616402
780.051453	29.568853
780.002686	35.476715
779.953918	17.735403
779.905151	20.687857
779.856384	38.413902
779.807556	26.589809
779.758789	38.401104
779.710022	23.627512
779.661194	26.576523
779.612427	53.144188
779.563599	23.615704
779.514832	29.514711
779.466003	35.411751
779.417236	32.455364
779.368408	23.599966
779.319580	20.646530
779.270813	26.541113
779.221985	20.639648
779.173218	14.740149
779.124390	29.475384
779.075562	26.523422
779.026733	23.572447
778.977966	20.622452
778.929138	17.673441
778.880310	29.450825
778.831482	35.335098
778.782593	32.385105
778.733826	47.097755
778.684937	26.488070
778.636108	32.368912
778.587341	17.652824
778.538513	38.241409
778.489624	20.588095
778.440796	23.525328
778.391968	26.461580
778.343079	38.215908
778.294250	32.331142
778.245422	23.509638
778.196594	11.752858
778.147705	29.377245
778.098816	17.623407
778.049988	29.367445
778.001099	41.107567
777.952271	20.550354
777.903381	52.834953
777.854553	23.478283
777.805664	14.671479
777.756836	29.338062
777.707886	14.666583
777.659058	5.865654
777.610168	41.052731
777.561279	46.909576
777.512451	32.244953
777.463562	38.101311
777.414673	23.443048
777.365784	26.369028
777.316895	32.223434
777.268005	32.218056
777.219116	29.284252
777.170227	23.423492
777.121277	43.911716
777.072388	38.050468
777.023560	14.632352
776.974670	23.407856
776.925720	17.552961
776.876831	32.175056
776.827881	32.169685
776.778992	23.392227
776.730103	43.853104
776.681152	23.384417
776.632263	32.148205
776.583313	35.064911
776.534424	37.980644
776.485535	26.289900
776.436584	23.364899
776.387695	17.520746
776.338684	26.276731
776.289795	23.353193
776.240906	23.349293
776.191956	23.345392
776.143005	32.094551
776.094055	8.751597
776.045105	37.917255
775.996216	26.246021
775.947266	20.410162
775.898315	32.067753
775.849365	29.147633
775.800415	23.314209
775.751465	17.482737
775.702515	29.133024
775.653564	23.302525
775.604553	20.386303
775.555664	11.647368
775.506653	8.734067
775.457703	40.752167
775.408752	29.103825
775.359802	20.369272
775.310852	40.731735
775.261841	29.089233
775.212891	29.084372
775.163879	26.171558
775.114929	34.889580
775.065918	34.883747
775.016968	23.251944
774.968018	31.966076
774.918945	49.393860
774.869995	31.955389
774.820984	20.331846
774.772034	31.944702
774.723022	34.842941
774.674011	8.709278
774.625061	40.636501
774.576050	31.923340
774.527039	20.311455
774.478027	26.110361
774.429016	17.403996
774.380005	23.201447
774.330994	28.996958
774.281982	5.798421
774.232971	20.291080
774.183960	37.677132
774.134949	23.182049
774.085876	31.869984
774.036926	31.864653
773.987915	17.377811
773.938904	34.749809
773.889832	43.429993
773.840820	43.422726
773.791809	28.943640
773.742737	20.257156
773.693665	20.253767
773.644653	34.714931
773.595581	14.462135
773.546570	26.027487
773.497559	26.023130
773.448486	34.691700
773.399475	43.357365
773.350403	31.790079
773.301331	11.558094
773.252319	23.112318
773.203247	28.885561
773.154236	20.216507
773.105103	23.100712
773.056030	34.645267
773.007019	28.866222
772.957947	20.202972
772.908875	20.199589
772.859802	8.655518
772.810730	28.846893
772.761658	17.305237
772.712585	25.953508
772.663513	43.248604
772.614441	17.296545
772.565369	28.822746
772.516296	17.290751
772.467163	20.169163
772.418091	20.165785
772.368958	28.803438
772.319946	23.038891
772.270813	40.311306
772.221741	20.152277
772.172668	43.176212
772.123535	23.023457
772.074402	25.897049
772.025330	28.769676
771.976257	23.011885
771.927124	28.760036
771.877991	25.879696
771.828918	23.000319
771.779785	20.121906
771.730652	14.370381
771.681580	22.988756
771.632446	31.604242
771.583313	31.598946
771.534180	28.721498
771.485046	14.358342
771.435974	34.454247
771.386780	43.060585
771.337708	25.832022
771.288513	31.567177
771.239380	25.823360
771.190247	31.556593
771.141113	25.814701
771.091980	8.603457
771.042908	20.071369
770.993713	17.201145
770.944519	22.931015
770.895447	20.061274
770.846313	14.327078
770.797119	20.054544
770.747925	25.780090
770.698792	25.775766
770.649658	22.907949
770.600525	25.767120
770.551331	11.450132
770.502197	25.758476
770.453003	14.307864
770.403870	34.333115
770.354675	22.884903
770.305481	25.741196
770.256287	20.017570
770.207153	28.591732
770.157959	28.586935
770.108765	22.865709
770.059631	25.719606
770.010437	22.858036
769.961243	22.854200
769.912048	28.562956
769.862854	31.413979
769.813660	22.842695
769.764465	17.129147
769.715271	22.835028
769.666077	34.246792
769.616882	14.267101
769.567688	31.382355
769.518494	28.524624
769.469238	22.815868
769.420044	31.366552
769.370850	25.659233
769.321594	25.654926
769.272461	25.650618
769.223206	25.646311
769.173950	31.340227
769.124817	25.637699
769.075562	25.633394
769.026306	34.172119
768.977112	14.235991
768.927856	14.233601
768.878662	34.154903
768.829407	17.074583
768.780212	19.917002
768.730957	25.603271
768.681763	22.754641
768.632446	36.970078
768.583252	19.903622
768.533997	34.114761
768.484741	25.581772
768.435486	28.419416
768.386230	22.731712
768.337036	51.137760
768.287781	22.724073
768.238525	36.920414
768.189209	25.555992
768.140015	34.068932
768.090759	11.354402
768.041443	28.381233
767.992188	19.863523
767.942932	17.023016
767.893677	17.020155
767.844421	31.198372
767.795105	19.850172
767.745850	22.682098
767.696594	25.513071
767.647278	28.343090
767.598022	19.836828
767.548767	22.666849
767.499451	16.997278
767.450134	11.329614
767.400879	16.991562
767.351562	28.314508
767.302307	25.478773
767.252991	19.813490
767.203735	33.960270
767.154419	28.295467
767.105103	25.461637
767.055786	28.285950
767.006470	25.453072
766.957214	22.621147
766.907837	22.617342
766.858582	42.400383
766.809265	28.262167
766.759949	42.386120
766.710632	19.776861
766.661316	36.722275
766.612000	33.891781
766.562683	36.709919
766.513367	33.880379
766.464050	16.937338
766.414673	22.579317
766.365356	31.041338
766.316040	25.393183
766.266724	31.030890
766.217346	14.102576
766.168030	28.200405
766.118713	42.293488
766.069336	28.190912
766.020020	31.004784
765.970703	28.181421
765.921326	19.723675
765.871948	30.989128
765.822632	39.434067
765.773254	22.529959
765.723938	16.894625
765.674561	16.891779
765.625244	22.518581
765.575867	14.071743
765.526489	16.883247
765.477112	16.880405
765.427795	28.129271
765.378418	8.437360
765.329041	47.803654
765.279663	25.303555
765.230286	19.677227
765.180908	16.863354
765.131531	25.290770
765.082153	36.524956
765.032715	33.709667
764.983337	25.277990
764.934021	8.424577
764.884644	19.654034
764.835205	14.036231
764.785828	22.454185
764.736450	19.644102
764.687073	42.087410
764.637634	22.442837
764.588257	44.878109
764.538818	19.630863
764.489441	30.843300
764.440063	22.427711
764.390625	19.620939
764.341187	19.617632
764.291809	8.406139
764.242432	8.404722
764.192932	28.011019
764.143555	19.604408
764.094116	5.600315
764.044739	13.998427
763.995300	33.590561
763.945862	39.182381
763.896484	25.184425
763.847046	33.573574
763.797607	25.175934
763.748169	16.781126
763.698730	19.574678
763.649292	11.183643
763.599854	27.954393
763.550415	36.334583
763.500977	11.177986
763.451538	33.528301
763.402100	22.348431
763.352661	25.137743
763.303162	30.718725
763.253723	27.921404
763.204285	36.291702
763.154846	25.120785
763.105408	22.325819
763.055908	30.692822
763.006470	27.897856
762.957031	25.103834
762.907532	22.310755
762.858032	22.306990
762.808594	16.727419
762.759094	33.449192
762.709656	30.656584
762.660156	36.224392
762.610718	22.288172
762.561218	19.498857
762.511780	36.206051
762.462280	22.276886
762.412781	38.977970
762.363342	19.485695
762.313843	13.916003
762.264343	30.610039
762.214783	25.040348
762.165344	22.254330
762.115845	44.501144
762.066345	25.027666
762.016846	30.584206
761.967346	22.239302
761.917847	30.573875
761.868286	19.452816
761.818848	19.449532
761.769287	22.224281
761.719788	24.998095
761.670288	38.879356
761.620789	19.436394
761.571228	19.433111
761.521729	27.756897
761.472229	19.426544
761.422668	30.522270
761.373169	13.871415
761.323608	11.095257
761.274109	24.960110
761.224609	24.955893
761.175049	19.406858
761.125488	30.491339
761.075989	30.486187
761.026489	13.855016
760.976929	33.246418
760.927307	27.700665
760.877808	36.004780
760.828308	19.383911
760.778687	13.843310
760.729187	35.986523
760.679626	27.677261
760.630066	35.974358
760.580566	19.367533
760.530945	47.027485
760.481384	33.190258
760.431824	13.826936
760.382263	33.179035
760.332703	24.880068
760.283142	27.639847
760.233521	27.635172
760.184021	16.578299
760.134460	13.812913
760.084839	13.810576
760.035278	27.616482
759.985657	35.895351
759.936096	27.607140
759.886536	44.163952
759.836975	27.597799
759.787354	33.111759
759.737732	13.794231
759.688232	22.067036
759.638611	33.094955
759.588989	33.089355
759.539368	33.083755
759.489807	27.565130
759.440186	27.560467
759.390564	19.289062
759.341003	33.061367
759.291443	30.301125
759.241760	11.016726
759.192200	22.029722
759.142578	19.272745
759.092957	19.269482
759.043335	19.266220
758.993713	11.007405
758.944092	44.022167
758.894470	27.509195
758.844849	27.504539
758.795227	32.999859
758.745667	16.497135
758.695984	32.988686
758.646362	24.737324
758.596741	30.229387
758.547058	30.224268
758.497437	21.977564
758.447815	24.720572
758.398193	24.716385
758.348511	35.695396
758.298889	27.453346
758.249268	21.958958
758.199646	10.977619
758.149963	16.463638
758.100281	32.921700
758.050659	27.430101
758.000977	21.940365
757.951355	32.904968
757.901672	35.641010
757.851990	16.446911
757.802368	21.925497
757.752686	24.662004
757.703003	19.178308
757.653320	16.435764
757.603699	24.649469
757.554016	30.122023
757.504333	27.379015
757.454651	13.687187
757.404968	30.106709
757.355286	21.892076
757.305603	27.360456
757.255920	13.677910
757.206238	19.145826
757.156616	16.407927
757.106873	27.341908
757.057190	13.668636
757.007446	24.599373
756.957764	30.060802
756.908081	19.126358
756.858398	13.659368
756.808716	13.657051
756.758972	40.964203
756.709290	40.957256
756.659607	19.110144
756.609924	16.377346
756.560120	21.832756
756.510437	43.658108
756.460693	38.194363
756.411072	10.910824
756.361328	24.545189
756.311584	46.355270
756.261902	21.810543
756.212097	19.080988
756.162415	27.253927
756.112671	16.349583
756.062927	21.795744
756.013184	32.688068
755.963501	27.235434
755.913757	27.230812
755.864014	19.058332
755.814270	32.665882
755.764587	21.773558
755.714844	16.327396
755.665100	29.928480
755.615356	32.643707
755.565552	21.758778
755.515808	21.755083
755.466064	32.627087
755.416321	21.747698
755.366577	21.744005
755.316833	19.022774
755.267029	27.170776
755.217285	21.732931
755.167542	24.445395
755.117737	32.588326
755.067993	21.721859
755.018188	32.577255
754.968445	21.714481
754.918701	35.280041
754.868896	24.420494
754.819092	8.138782
754.769348	27.124664
754.719543	16.272034
754.669739	29.826994
754.619995	13.555421
754.570190	32.527485
754.520386	29.811794
754.470642	21.677620
754.420837	16.255453
754.371033	40.631725
754.321228	29.791534
754.271484	13.539306
754.221619	21.659206
754.171875	32.483288
754.122070	24.358326
754.072205	21.648165
754.022400	13.527803
753.972595	32.461208
753.922852	24.341768
753.872986	37.858536
753.823181	29.740934
753.773376	21.626093
753.723572	27.028021
753.673706	40.535137
753.623901	18.913181
753.574097	10.805695
753.524292	35.112534
753.474426	21.604038
753.424561	21.600365
753.374756	13.497931
753.324951	43.186035
753.275085	35.082687
753.225281	10.792836
753.175415	24.279751
753.125610	18.881039
753.075745	18.877827
753.025879	40.445602
752.976074	37.742809
752.926208	29.650019
752.876343	29.644974
752.826477	5.389078
752.776672	29.634886
752.726807	24.242598
752.676941	24.238472
752.627075	24.234348
752.577209	21.537977
752.527344	26.917889
752.477539	29.604637
752.427673	26.908726
752.377808	29.594561
752.327881	26.899567
752.278015	24.205488
752.228149	26.890408
752.178284	21.508665
752.128357	32.257504
752.078491	21.501341
752.028625	16.123260
751.978760	26.867525
751.928833	32.235538
751.878967	24.172537
751.829102	18.797661
751.779175	10.739691
751.729309	21.475723
751.679382	21.472067
751.629456	18.784859
751.579590	24.147846
751.529663	26.826370
751.479797	24.139620
751.429871	26.817230
751.379944	21.450130
751.330078	13.404047
751.280212	18.762468
751.230225	29.478855
751.180298	18.756075
751.130371	24.110846
751.080505	26.785263
751.030579	26.780699
750.980652	37.486588
750.930725	24.094414
750.880859	16.060205
750.830872	29.438690
750.780945	21.406307
750.731018	18.727325
750.681091	16.049257
750.631165	29.418623
750.581177	29.413609
750.531311	32.082100
750.481384	24.057474
750.431396	21.380775
750.381409	18.704988
750.331482	32.060226
750.281616	42.739681
750.231628	29.378519
750.181641	16.021914
750.131714	37.378090
750.081787	29.363491
750.031799	34.696388
