#Wave		#Intensity
899.963257	126.480827
899.920715	140.032349
899.878235	108.394737
899.835815	90.314453
899.793274	108.359955
899.750793	139.942474
899.708252	139.920013
899.665771	99.282143
899.623230	135.363022
899.580688	117.295784
899.538208	103.745010
899.495667	117.258148
899.453186	121.748535
899.410645	135.254440
899.368103	130.724976
899.325623	112.675865
899.283020	108.151474
899.240540	103.628532
899.197998	126.136230
899.155396	103.595276
899.112854	121.592339
899.070312	85.551247
899.027771	117.051346
898.985229	112.531311
898.942688	121.514313
898.900085	103.495590
898.857544	107.978065
898.814941	134.950928
898.772400	130.431641
898.729797	148.398392
898.687256	98.916389
898.644714	85.414085
898.602112	103.379410
898.559570	130.327042
898.516907	121.319496
898.474304	98.837067
898.431763	125.772453
898.389221	116.769966
898.346558	125.732101
898.304016	116.732506
898.261353	179.559662
898.218750	121.183327
898.176147	107.701233
898.133606	125.631279
898.090942	80.750008
898.048340	125.590981
898.005676	98.662796
897.963074	125.550690
897.920471	147.946716
897.877808	134.475449
897.835205	147.899261
897.792542	134.432297
897.749939	94.087517
897.707275	134.389175
897.664673	107.494102
897.622009	111.955063
897.579346	138.802002
897.536743	102.965614
897.494080	116.377243
897.451477	161.111877
897.408752	107.390694
897.366089	134.216843
897.323425	134.195312
897.280823	111.811485
897.238098	129.680527
897.195435	116.246651
897.152710	125.168625
897.110046	147.496506
897.067383	147.472839
897.024719	169.789978
896.982056	151.892990
896.939331	147.401901
896.896667	142.912262
896.854004	156.285217
896.811279	160.724731
896.768555	178.554382
896.725830	160.673172
896.683167	147.260132
896.640442	156.159943
896.597778	160.595886
896.555054	191.792114
896.512268	151.625259
896.469604	160.518646
896.426880	182.783585
896.384094	173.839432
896.341431	169.354858
896.298706	164.871704
896.255920	169.300537
896.213257	173.727951
896.170532	169.246246
896.127747	124.687767
896.085022	164.739563
896.042236	151.358032
895.999512	195.843689
895.956787	173.560883
895.913940	146.835663
895.871216	173.505234
895.828430	142.340439
895.785767	151.212463
895.742981	155.634933
895.700195	142.271988
895.657410	115.577454
895.614624	177.782959
895.571838	173.310593
895.529114	124.408173
895.486267	159.927719
895.443481	177.668976
895.400757	173.199478
895.357910	182.052307
895.315125	173.143951
895.272339	195.310577
895.229553	159.773941
895.186768	133.123596
895.143921	164.159454
895.101135	137.516953
895.058350	168.542145
895.015442	190.688171
894.972656	177.355911
894.929871	172.894287
894.887024	132.974289
894.844238	221.588287
894.801392	181.673264
894.758545	221.517242
894.715698	168.326111
894.672913	137.296661
894.630066	154.987518
894.587219	212.520233
894.544373	128.377060
894.501526	146.060822
894.458679	203.567291
894.415894	168.137329
894.372986	207.925995
894.330078	163.660187
894.287292	190.169189
894.244446	198.982361
894.201538	176.844864
894.158691	172.396103
894.115845	172.368469
894.072876	176.759842
894.030029	225.332672
893.987183	203.208664
893.944275	220.843567
893.901428	194.311203
893.858521	207.526413
893.815552	158.930923
893.772766	172.147583
893.729858	233.906647
893.686951	158.854523
893.644043	180.888657
893.601135	242.616623
893.558167	207.293701
893.515320	233.719269
893.472412	185.181808
893.429504	171.926987
893.386536	163.084076
893.343689	167.464905
893.300720	163.031799
893.257812	158.600113
893.214844	207.028076
893.171936	259.844666
893.129028	180.541077
893.086060	206.928558
893.043091	167.277130
893.000183	228.868866
892.957275	198.027847
892.914307	215.595779
892.871338	206.762802
892.828430	171.541641
892.785461	189.105347
892.742493	189.075043
892.699524	197.837524
892.656555	241.762665
892.613525	237.328949
892.570618	188.953873
892.527649	188.923599
892.484619	193.286194
892.441711	210.823883
892.398682	193.224258
892.355652	223.928589
892.312744	171.212067
892.269775	223.856827
892.226746	223.820969
892.183777	179.905670
892.140686	228.136490
892.097717	245.646072
892.054749	153.504196
892.011719	210.486313
891.968750	245.528015
891.925720	162.197876
891.882751	197.236084
891.839722	148.998932
891.796692	210.317734
891.753662	170.855774
891.710632	219.010773
891.667603	214.596176
891.624573	205.804169
891.581482	227.661743
891.538513	240.757492
891.495422	188.198425
891.452454	201.296295
891.409363	205.639359
891.366272	214.355621
891.323242	214.321274
891.280273	205.540527
891.237122	192.390091
891.194092	249.192688
891.151062	271.008270
891.107971	196.668045
891.064880	209.745636
891.021851	231.557037
890.978760	205.310135
890.935730	196.542038
890.892639	257.647156
890.849548	213.943878
890.806458	222.640610
890.763367	231.334549
890.720276	226.933380
890.677185	218.170212
890.634155	205.047150
890.591003	205.014297
890.547913	218.065384
890.504761	261.636536
890.461731	191.836060
890.418579	174.368484
890.375488	174.340546
890.332336	230.964218
890.289246	243.998581
890.246155	222.177399
890.203003	187.296036
890.159912	200.331100
890.116760	209.007660
890.073669	248.156845
890.030457	221.999496
889.987366	235.020645
889.944214	234.983002
889.901062	274.102905
889.857910	208.806870
889.814758	213.122864
889.771606	208.739975
889.728516	256.535126
889.685364	208.673111
889.642212	278.186249
889.598999	182.530487
889.555908	252.025528
889.512695	234.606873
889.469543	251.944794
889.426392	243.218079
889.383240	251.864090
889.340027	234.456604
889.296875	269.147797
889.253723	217.019897
889.210449	182.267517
889.167297	212.611389
889.124146	199.562393
889.080933	247.244232
889.037781	225.520004
888.994507	216.811432
888.951294	255.796509
888.908081	281.764587
888.864868	203.704834
888.821716	247.006729
888.778503	216.637863
888.735291	246.927612
888.692078	277.207642
888.648804	272.832581
888.605652	238.149017
888.562378	268.415894
888.519226	216.429764
888.475952	233.706711
888.432739	246.650909
888.389465	242.284897
888.346252	242.246094
888.303040	281.133453
888.259766	237.844055
888.216492	250.777206
888.173279	220.475677
888.130066	272.308685
888.086731	233.370071
888.043457	241.974640
888.000244	289.459015
887.956970	332.608582
887.913696	285.047424
887.870483	263.410706
887.827209	237.463440
887.783936	267.643188
887.740601	263.284180
887.697327	194.194931
887.654053	224.367096
887.610779	254.529602
887.567505	297.622528
887.524231	284.636841
887.480957	237.159378
887.437622	275.923096
887.394348	293.121338
887.351074	267.214874
887.307739	258.553650
887.264404	258.512238
887.221130	249.855148
887.177734	211.050720
887.134460	271.307465
887.091125	271.264038
887.047852	331.491821
887.004517	275.481567
886.961182	266.830017
886.917908	292.605408
886.874573	318.372559
886.831238	309.718292
886.787842	249.455338
886.744568	305.318848
886.701172	279.472473
886.657837	318.117737
886.614502	232.102798
886.571167	322.313385
886.527832	270.699890
886.484436	283.544952
886.441101	287.794983
886.397766	322.106995
886.354370	266.232452
886.310974	317.710449
886.267639	261.854523
886.224304	278.980621
886.180908	304.683899
886.137451	321.797638
886.094177	278.846649
886.050781	317.405334
886.007385	317.354523
885.963989	317.303711
885.920593	270.093689
885.877197	270.050446
885.833862	278.578857
885.790405	278.534241
885.747009	295.627472
885.703613	304.147675
885.660217	316.948242
885.616821	304.050293
885.573364	312.565033
885.529968	295.390869
885.486511	291.063232
885.443115	320.974243
885.399719	325.201813
885.356323	342.262878
885.312805	303.709686
885.269409	290.830292
885.225952	307.888672
885.182556	320.666016
885.139099	341.988983
885.095642	371.853485
885.052185	320.512024
885.008728	311.915070
884.965332	277.688141
884.921875	290.458008
884.878418	294.682251
884.835022	294.635071
884.791504	337.281799
884.748108	303.078156
884.704590	337.173798
884.661072	328.585144
884.617615	324.265900
884.574219	315.682037
884.530762	307.100891
884.487244	332.639374
884.443726	315.530426
884.400269	311.216675
884.356812	336.742188
884.313232	357.997681
884.269836	302.544830
884.226257	319.538422
884.182739	400.424042
884.139343	362.027618
884.095825	319.384979
884.052307	319.333862
884.008789	323.539825
883.965332	319.231628
883.921753	323.436249
883.878235	268.068695
883.834717	302.060791
883.791199	314.773529
883.747681	318.976166
883.704163	297.663422
883.660645	276.357483
883.617126	335.826874
883.573547	280.519318
883.530029	386.714691
883.486511	305.923096
883.442932	297.377625
883.399414	327.063019
883.355896	305.776184
883.312317	322.712067
883.268738	305.678284
883.225220	275.915375
883.181641	318.312958
883.138062	326.748962
883.094482	322.453857
883.050964	279.980896
883.007385	330.833527
882.963745	305.335907
882.920227	360.408295
882.876648	373.068848
882.833069	351.815430
882.789429	355.997162
882.745911	275.429901
882.702332	343.173096
882.658691	338.882111
882.615112	351.533905
882.571533	359.946991
882.527954	347.187378
882.484314	287.865387
882.440735	317.447784
882.397156	300.469116
882.353516	308.883575
882.309875	287.681122
882.266296	317.244537
882.222656	312.964508
882.179016	329.828705
882.135437	257.901672
882.091797	249.405945
882.048218	363.482666
882.004517	287.358887
881.960876	274.637329
881.917236	295.715912
881.873657	287.220917
881.829956	312.513885
881.786316	316.686371
881.742737	320.857483
881.699036	354.575165
881.655396	333.416138
881.611694	291.164948
881.568054	303.775635
881.524414	299.508575
881.480774	320.549408
881.437073	244.590652
881.393372	316.230408
881.349731	265.591003
881.306091	320.344208
881.262390	303.435425
881.218689	294.959412
881.174988	231.716736
881.131348	269.590851
881.087646	320.087891
881.044006	273.715576
881.000244	214.727066
880.956604	273.627930
880.912903	252.539200
880.869141	231.457214
880.825500	277.704193
880.781799	239.797043
880.738098	307.059326
880.694397	256.542755
880.650574	302.756104
880.606934	285.890533
880.563232	248.012375
880.519470	210.146332
880.475769	289.955536
880.432007	273.102783
880.388306	218.447250
880.344604	319.217957
880.300842	239.375137
880.257080	247.734604
880.213379	260.289612
880.169617	214.074921
880.125854	235.025040
880.082092	268.557037
880.038391	251.731918
879.994629	222.327606
879.950867	264.233917
879.907104	234.836990
879.863342	243.185089
879.819580	251.530518
879.775818	222.149719
879.732056	234.686661
879.688293	238.839249
879.644531	263.937958
879.600708	263.895721
879.556946	226.160126
879.513123	217.748962
879.469299	251.208588
879.425598	234.423813
879.381775	213.458939
879.338013	225.979172
879.294189	238.495392
879.250427	200.806076
879.206604	263.515778
879.162781	250.927231
879.119019	225.798370
879.075134	221.581436
879.031372	246.626648
878.987549	238.228271
878.943726	242.368912
878.899963	162.946121
878.856140	233.936462
878.812317	208.838409
878.768433	196.276672
878.724609	254.701294
878.680786	208.738129
878.636963	229.575195
878.593079	208.671310
878.549255	200.292389
878.505432	208.604507
878.461609	237.771072
878.417725	158.488678
878.373840	150.123138
878.330017	154.268524
878.286194	154.243820
878.242310	175.059555
878.198425	179.198959
878.154602	212.504272
878.110718	208.304169
878.066895	174.947495
878.022949	179.084244
877.979065	224.860489
877.935181	187.353745
877.891296	158.184509
877.847473	166.483353
877.803589	170.618118
877.759705	174.751556
877.715759	187.203842
877.671936	178.855042
877.627991	145.556381
877.584106	182.955872
877.540222	187.084000
877.496277	203.681091
877.452393	178.711929
877.408447	178.683319
877.364563	178.654724
877.320679	191.088409
877.276672	157.830383
877.232788	178.568939
877.188904	166.084061
877.144958	166.057465
877.101013	161.880112
877.057068	145.253769
877.013184	161.828293
876.969238	157.653610
876.925354	145.184021
876.881348	157.603134
876.837402	182.458633
876.793457	161.698807
876.749512	157.527466
876.705566	124.343880
876.661560	128.468109
876.617676	149.164886
876.573730	153.283813
876.529724	136.690704
876.485779	173.942139
876.441833	178.055115
876.397888	169.746307
876.353821	177.998123
876.309875	182.108444
876.265869	157.250305
876.221924	157.225128
876.177917	173.747330
876.133972	153.038620
876.089966	157.149643
876.046021	177.798752
876.002014	165.367722
875.958008	198.409485
875.913940	144.650421
875.869995	136.362854
875.825989	169.393402
875.781982	148.711853
875.737976	128.036926
875.693970	152.793808
875.649902	144.511551
875.605896	136.231934
875.561890	132.082550
875.517883	140.315247
875.473877	169.176590
875.429810	127.893524
875.385864	152.622681
875.341736	181.468185
875.297791	140.202972
875.253723	181.410080
875.209656	144.280380
875.165588	140.135651
875.121521	177.201996
875.077454	173.053314
875.033447	181.264923
874.989380	160.640915
874.945374	131.786835
874.901306	160.589493
874.857239	156.446762
874.813110	152.305359
874.769104	156.396683
874.725037	168.716766
874.680969	189.261688
874.636841	181.003937
874.592773	197.427231
874.548706	185.058395
874.504639	197.364014
874.460571	164.443680
874.416443	152.086060
874.372437	147.951935
874.328308	160.255600
874.284180	139.687653
874.240051	151.988693
874.196045	193.035812
874.151917	147.833542
874.107788	114.963242
874.063660	172.417252
874.019531	168.285126
873.975464	160.050476
873.931335	147.715240
873.887207	131.281418
873.843079	164.075500
873.798950	164.049240
873.754822	196.827576
873.710754	172.196548
873.666565	118.878586
873.622437	172.141418
873.578308	143.428223
873.534180	192.572769
873.489990	163.865479
873.445862	106.495514
873.401672	204.766266
873.357605	167.881454
873.313416	159.666550
873.269287	163.734344
873.225098	180.078949
873.180969	151.405777
873.136780	147.290146
873.092590	192.264694
873.048462	184.053741
873.004272	147.219421
872.960083	163.550949
872.915894	175.789108
872.871765	151.236176
872.827576	167.559204
872.783386	138.929291
872.739197	175.676559
872.695007	175.648438
872.650818	151.115158
872.606567	151.090958
872.562439	138.818115
872.518188	175.535980
872.474060	118.365776
872.429810	155.075150
872.385559	102.006790
872.341370	142.786636
872.297241	199.869293
872.252930	187.602356
872.208740	163.106354
872.164551	163.080246
872.120361	167.130493
872.076050	142.649521
872.031860	171.152023
871.987610	162.975830
871.943359	150.728500
871.899109	142.558182
871.854919	150.680237
871.810608	166.943253
871.766418	158.774261
871.722168	150.607864
871.677917	122.094940
871.633667	154.628830
871.589417	154.604065
871.545166	109.832672
871.500916	138.285660
871.456665	150.463242
871.412354	150.439148
871.368103	150.415054
871.323853	154.455597
871.279602	150.366898
871.235229	154.406143
871.190979	182.820099
871.146790	174.666779
871.102417	129.963776
871.058105	138.064392
871.013916	133.982224
870.969604	186.733185
870.925293	146.115616
870.880981	162.324692
870.836731	142.011368
870.792419	141.988617
870.748047	158.190552
870.703796	137.887634
870.659485	162.194763
870.615173	162.168793
870.570862	121.607124
870.526550	109.428886
870.482178	129.672729
870.437866	141.806824
870.393555	121.529251
870.349243	121.509789
870.304932	117.440651
870.260559	121.470879
870.216248	145.741714
870.171875	125.479706
870.127563	113.318359
870.083252	117.346649
870.038879	145.648376
869.994507	84.947945
869.950195	93.023331
869.905823	109.183815
869.861511	137.468704
869.817078	109.148849
869.772766	92.963760
869.728394	117.196404
869.684021	80.812157
869.639648	100.999023
869.595276	117.140106
869.550903	100.966675
869.506531	117.102592
869.462158	100.934341
869.417786	76.697815
869.373413	88.793777
869.328979	92.814987
869.284607	72.626183
869.240234	92.785263
869.195862	80.669914
869.151428	88.722694
869.107056	80.644081
869.062622	64.504929
869.018250	72.556427
868.973877	80.605339
868.929443	68.503563
868.885010	76.550545
868.840637	88.623276
868.796143	68.470657
868.751770	64.432648
868.707336	64.422333
868.662903	64.412010
868.618469	64.401695
868.574036	84.513687
868.529663	68.404884
868.485229	64.370758
868.440735	88.495613
868.396301	60.328255
868.351868	80.424789
868.307434	56.288338
868.263000	76.379082
868.218506	64.308922
868.174072	60.279961
868.129578	100.450508
868.085144	100.434418
868.040710	72.301201
867.996277	84.337891
867.951721	80.308937
867.907288	56.207249
867.862793	68.240730
867.818359	52.175728
867.773865	72.231743
867.729370	64.195709
867.684937	84.243370
867.640442	80.218933
867.595947	60.154564
867.551514	80.193237
867.506958	48.108234
867.462463	56.117283
867.417969	40.077354
867.373535	68.120590
867.328979	32.051613
867.284485	104.151054
867.239929	48.062016
867.195435	80.090530
867.150940	56.054390
867.106445	64.051903
867.061890	72.046844
867.017395	68.033340
866.972839	76.025085
866.928345	72.012230
866.883789	88.000847
866.839294	75.988556
866.794739	55.982597
866.750183	59.971745
866.705688	63.959614
866.661133	59.952534
866.616638	79.923904
866.572021	35.959995
866.527527	47.938980
866.482910	39.942749
866.438416	67.891800
866.393860	55.901936
866.349304	51.900623
866.304749	51.892311
866.260193	43.901844
866.215637	71.827873
866.171021	63.836769
866.126465	43.880745
866.081909	83.758911
866.037292	43.866688
865.992676	63.795868
865.948181	31.892824
865.903564	47.831573
865.859009	27.897280
865.814392	59.770309
865.769836	31.872391
865.725159	59.751160
865.680603	55.758812
865.635986	63.714149
865.591431	59.722443
865.546753	51.751160
865.502197	47.762646
865.457581	71.632492
865.412964	59.684177
865.368347	51.717999
865.323792	39.776703
865.279114	75.563629
865.234497	55.669540
865.189880	39.757587
865.145264	51.676582
865.100647	51.668301
865.055969	67.555412
865.011353	55.624958
864.966675	55.616043
864.922058	51.635193
864.877441	59.569523
864.832825	35.735989
864.788147	63.520466
864.743469	71.449074
864.698853	59.531353
864.654175	55.553692
864.609497	43.642334
864.564880	67.436440
864.520203	59.493206
864.475586	31.724625
864.430908	71.368965
864.386169	67.393227
864.341492	51.527737
864.296875	47.556442
864.252136	51.511223
864.207520	83.197105
864.162781	43.572453
864.118103	59.407459
864.073425	35.638763
864.028687	67.306877
863.984009	67.296089
863.939331	71.243263
863.894653	59.359875
863.849976	51.436977
863.805237	75.165077
863.760559	55.375916
863.715820	59.321831
863.671143	67.220634
863.626404	75.116905
863.581665	27.670214
863.536987	51.379303
863.492249	59.274311
863.447571	63.215797
863.402832	75.056732
863.358093	47.396652
863.313354	67.134499
863.268616	47.381462
863.223877	55.269512
863.179138	47.366276
863.134338	43.412128
863.089600	31.567396
863.044861	63.124672
863.000183	67.059212
862.955444	43.384300
862.910645	55.207535
862.865906	39.427631
862.821106	23.652788
862.776367	63.063992
862.731628	39.408676
862.686890	43.342598
862.642090	39.396046
862.597290	66.962540
862.552490	47.260101
862.507751	23.626263
862.463013	59.056187
862.418213	59.046722
862.373352	23.614902
862.328613	43.287048
862.283813	51.149220
862.239014	35.405323
862.194275	35.399647
862.149475	31.461309
862.104675	39.320332
862.059814	47.176834
862.015076	35.376953
861.970215	27.510998
861.925415	39.295128
861.880615	31.431061
861.835754	43.210781
861.790955	35.348610
861.746155	51.050915
861.701294	27.484549
861.656494	23.554407
861.611694	39.251053
861.566833	47.093712
861.522034	15.695387
861.477173	43.155396
861.432373	27.458122
861.387512	35.297638
861.342651	47.055973
861.297852	31.365620
861.252991	43.120811
861.208130	74.469460
861.163269	39.188171
861.118408	54.854641
861.073608	47.010727
861.028687	39.169323
860.983826	46.995655
860.938965	46.988117
860.894165	35.235439
860.849243	50.887474
860.804382	35.224140
860.759460	39.131660
860.714600	11.737616
860.669739	39.119110
860.624817	62.580544
860.580017	43.017223
860.535095	35.190266
860.490173	15.637611
860.445251	31.270206
860.400391	46.897789
860.355469	31.260180
860.310608	35.162064
860.265686	19.531347
860.220764	35.150787
860.175903	50.765217
860.130920	39.043907
860.086060	23.422586
860.041138	58.547077
859.996216	39.025127
859.951294	42.920753
859.906372	46.815132
859.861450	35.105721
859.816467	46.800121
859.771606	46.792614
859.726685	23.392555
859.681702	31.185072
859.636780	42.872597
859.591858	23.381302
859.546936	38.962589
859.501953	42.851974
859.457031	46.740112
859.412109	70.098923
859.367065	35.043839
859.322144	35.038219
859.277161	38.925110
859.232239	54.486416
859.187256	27.238838
859.142273	58.359577
859.097290	38.900146
859.052429	46.672688
859.007385	46.665203
858.962402	50.545860
858.917419	50.537754
858.872498	34.982063
858.827454	42.748997
858.782532	50.513439
858.737488	38.850258
858.692505	27.190819
858.647522	19.418900
858.602478	38.831570
858.557495	46.590408
858.512512	42.701023
858.467529	31.050308
858.422485	46.567989
858.377502	27.160303
858.332458	46.553051
858.287537	31.030390
858.242493	58.172646
858.197449	38.775543
858.152405	58.153984
858.107422	23.257862
858.062378	42.632576
858.017334	54.250935
857.972290	50.367786
857.927307	30.990589
857.882263	34.858822
857.837219	34.853230
857.792236	30.975677
857.747131	58.070076
857.702087	61.931477
857.657043	30.960772
857.611938	38.694756
857.566956	30.950838
857.521912	42.550575
857.476807	42.543747
857.431763	42.536922
857.386719	34.797352
857.341614	38.657520
857.296570	54.111847
857.251465	42.509628
857.206421	30.911133
857.161316	23.179630
857.116272	19.313259
857.071167	38.620319
857.026123	46.336948
856.981018	38.607929
856.935974	54.042427
856.890869	57.893311
856.845764	57.884022
856.800659	42.441471
856.755554	27.003874
856.710510	30.856619
856.665344	50.133961
856.620239	30.846718
856.575134	34.696987
856.530029	46.255226
856.484924	50.101788
856.439758	26.973557
856.394653	26.969229
856.349548	42.373413
856.304443	15.406042
856.259338	53.912491
856.214233	26.951920
856.169006	38.496563
856.123962	26.943270
856.078796	34.635788
856.033630	61.564854
855.988525	46.166229
855.943420	38.465683
855.898254	42.305462
855.853027	34.608006
855.807922	30.757732
855.762756	15.376398
855.717590	34.591343
855.672485	42.271523
855.627258	46.106987
855.582153	49.941219
855.536987	30.728125
855.491821	26.882793
855.446655	46.077393
855.401489	46.069996
855.356262	57.578251
855.311096	34.541405
855.265930	42.210499
855.220764	15.346808
855.175537	61.377380
855.130371	34.519234
855.085205	49.853111
855.039978	42.176632
854.994812	42.169861
854.949646	30.664066
854.904358	22.994358
854.859192	34.486000
854.814026	34.480465
854.768799	30.644381
854.723511	38.299328
854.678406	61.269085
854.633179	42.115734
854.587952	30.624708
854.542725	34.447266
854.497498	38.268593
854.452209	45.914940
854.407043	38.256310
854.361755	34.425148
854.316589	42.068428
854.271301	57.356827
854.226074	61.170792
854.180908	38.225609
854.135681	38.219471
854.090332	53.498669
854.045105	49.669357
853.999878	53.481491
853.954651	22.916958
853.909363	22.913279
853.864136	38.182667
853.818848	45.811840
853.773621	19.085203
853.728333	30.531420
853.683044	22.894888
853.637817	38.152020
853.592529	30.516716
853.547241	45.767723
853.501953	41.947010
853.456726	41.940273
853.411438	38.121399
853.366089	26.680693
853.320801	53.352818
853.275513	38.103035
853.230225	60.955067
853.184937	38.090797
853.139648	15.233872
853.094421	38.078564
853.049072	34.265205
853.003784	34.259701
852.958435	45.672268
852.913147	19.027054
852.867859	49.462399
852.822571	30.433510
852.777222	49.446510
852.731873	53.241535
852.686584	38.023560
852.641296	53.224434
852.595886	41.812481
852.550598	49.406815
852.505249	45.598965
852.459900	34.193729
852.414551	22.792158
852.369263	22.788498
852.323914	41.772202
852.278564	64.546669
852.233215	41.758785
852.187927	37.956432
852.142517	56.925503
852.097168	56.916359
852.051819	53.113403
852.006470	56.898075
851.961121	18.962978
851.915771	26.543905
851.870361	49.287903
851.825012	41.698448
851.779602	37.901592
851.734253	41.685055
851.688843	41.678356
851.643555	49.248325
851.598145	49.240414
851.552734	26.509809
851.507324	30.292057
851.461975	15.143596
851.416565	41.638195
851.371216	34.062141
851.325806	41.624817
851.280396	52.968529
851.235046	60.525738
851.189636	52.951511
851.144165	37.816429
851.098755	41.591389
851.053345	34.023849
851.007935	41.578026
850.962524	30.233704
850.917175	30.228846
850.871765	68.003975
850.826294	67.993050
850.780945	33.991062
850.735474	26.433243
850.690002	18.877853
850.644592	45.299568
850.599182	45.292290
850.553711	30.190008
850.508301	30.185156
850.462891	30.180305
850.417419	26.403522
850.372009	33.941933
850.326538	52.790073
850.281067	52.781590
850.235657	75.390152
850.190186	60.302429
850.144714	26.378073
850.099182	41.444595
850.053772	60.273361
850.008301	30.131836
849.962830	45.190491
849.917358	41.417957
849.871887	52.705292
849.826355	37.640587
849.780945	48.924896
849.735474	56.442730
849.690002	26.335707
849.644470	52.662949
849.598999	26.327242
849.553528	22.562580
849.507996	48.877731
849.462524	75.184425
849.417053	26.310318
849.371521	48.854164
849.325989	60.118538
849.280518	41.324848
849.234985	60.099209
849.189514	18.777983
849.143982	60.079887
849.098450	52.561451
849.052979	30.030285
849.007446	37.531822
848.961914	56.288681
848.916443	71.287537
848.870911	60.021957
848.825378	41.258461
848.779846	45.001995
848.734253	48.744324
848.688721	41.238564
848.643250	63.722080
848.597656	41.225304
848.552124	48.712978
848.506592	37.465500
848.461060	29.967579
848.415466	56.180176
848.369934	48.681656
848.324341	33.697266
848.278809	37.435387
848.233276	59.886986
848.187683	52.392689
848.142151	22.450397
848.096558	26.187920
848.050964	52.367416
848.005371	56.098923
847.959839	33.653942
847.914246	37.387253
847.868652	48.595615
847.823120	63.537891
847.777466	48.579987
847.731934	52.308495
847.686340	33.621479
847.640747	52.291668
847.595093	52.283260
847.549500	44.807014
847.503906	52.266441
847.458313	55.990753
847.412720	29.856932
847.367188	59.704258
847.321533	55.963741
847.275879	48.494106
847.230286	33.567444
847.184692	26.103811
847.139038	33.556644
847.093445	29.823332
847.047791	37.273167
847.002197	63.354191
846.956543	74.522354
846.910950	37.255184
846.865356	67.048538
846.819641	33.518879
846.773987	48.408367
846.728333	59.569946
846.682739	52.115318
846.637085	48.385010
846.591431	59.541199
846.545776	37.207264
846.500183	44.641533
846.454468	59.512466
846.408813	48.346100
846.363159	59.493320
846.317505	63.201481
846.271851	44.605633
846.226135	48.314995
846.180481	37.159401
846.134827	89.168213
846.089172	92.868607
846.043457	48.283905
845.997803	33.421940
845.952148	66.833122
845.906433	44.548248
845.860718	59.388103
845.815002	55.667389
845.769348	33.395058
845.723633	63.069405
845.677979	51.931152
845.632324	25.961397
845.586548	55.622612
845.540894	48.198505
845.495178	29.655846
845.449463	59.302147
845.403748	55.586815
845.358032	55.577869
845.312317	59.273521
845.266602	48.151985
845.220886	55.551041
845.175110	81.461746
845.129456	74.044212
845.083679	22.209688
845.037964	40.711208
844.992249	55.506348
844.946533	51.797588
844.900818	33.293091
844.854980	62.876823
844.809265	44.376495
844.763550	55.461693
844.717773	48.059063
844.672058	51.747581
844.626282	51.739250
844.580505	55.425987
844.534729	44.333652
844.489014	48.020393
844.443237	66.479073
844.397522	70.161057
844.351746	51.689297
844.305969	47.989475
844.260193	36.909039
844.214417	36.903095
844.168640	44.276588
844.122803	44.269459
844.077087	47.950859
844.031250	62.694874
843.985474	51.622757
843.939697	51.614449
843.893982	73.723053
843.848145	55.283386
843.802368	47.904552
843.756531	51.581211
843.710754	55.256687
843.664917	58.930973
843.619141	47.873707
843.573303	73.639992
843.527527	33.132660
843.481689	47.850582
843.435913	69.924202
843.390137	40.475914
843.344299	51.506504
843.298462	29.427549
843.252625	66.201324
843.206787	62.513401
843.160950	66.180000
843.115112	102.930084
843.069336	69.834167
843.023438	47.773579
842.977661	80.834572
842.931763	55.105602
842.885986	69.789185
842.840088	66.105423
842.794250	40.391251
842.748413	62.412788
842.702576	55.061237
842.656677	69.733002
842.610840	58.713070
842.565002	69.710541
842.519104	58.694153
842.473206	69.688080
842.427429	62.342449
842.381531	73.332245
842.335632	54.990322
842.289795	51.316032
842.243835	58.637447
842.197998	69.620750
842.152161	73.273193
842.106262	62.272182
842.060303	40.287273
842.014465	40.280781
841.968567	43.935593
841.922668	73.214188
841.876770	47.581554
841.830933	47.573887
841.784973	87.814568
841.739075	62.191963
841.693237	58.524178
841.647278	69.486267
841.601318	80.444817
841.555420	58.495895
841.509521	73.108086
841.463562	65.786674
841.417664	51.159168
841.371765	40.190010
841.325867	84.020119
841.279907	73.049202
841.234009	58.429943
841.188049	76.676941
841.142090	47.459026
841.096130	98.552864
841.050232	69.340836
841.004272	62.031803
840.958374	69.318489
840.912415	65.659561
840.866455	76.590477
840.820496	51.052090
840.774536	36.459900
840.728638	43.744827
840.682678	51.027409
840.636719	87.461456
840.590759	61.941879
840.544800	65.574944
840.498779	54.636978
840.452820	61.911930
840.406799	50.978077
840.360901	80.095490
840.314880	87.362816
840.268921	54.592957
840.222900	72.778877
840.176941	80.043854
840.130981	87.306496
840.084961	65.469315
840.039001	58.185562
839.992981	58.176182
839.947021	94.521057
839.901001	83.601295
839.854980	72.685059
839.808960	76.307007
839.763000	61.762379
839.716980	76.282402
839.670959	54.478645
839.625000	68.995155
839.578918	76.245506
839.532959	76.233215
839.486877	76.220924
839.440857	76.208633
839.394836	65.311150
839.348816	58.044994
839.302795	76.171768
839.256775	54.399632
839.210754	72.521149
839.164673	94.262291
839.118652	76.122650
839.072571	83.358978
839.026611	83.345535
838.980530	28.985075
838.934509	86.941200
838.888428	65.195381
838.842407	65.184868
838.796265	79.657547
838.750244	86.885124
838.704224	83.251480
838.658142	86.857101
838.612061	68.750778
838.566040	57.886055
838.519958	101.284256
838.473877	72.334229
838.427734	94.019325
838.381714	86.773071
838.335632	90.374031
838.289551	68.673187
838.243469	93.958672
838.197388	86.717087
838.151245	75.865211
838.105225	68.628883
838.059143	65.006348
838.013000	64.995857
837.966919	72.205971
837.920837	86.633179
837.874695	101.055740
837.828613	90.213776
837.782471	97.415161
837.736450	57.718189
837.690308	108.204140
837.644165	93.761795
837.598083	68.507179
837.551880	61.286003
837.505798	97.320885
837.459717	93.701286
837.413513	79.272911
837.367432	75.657387
837.321289	97.258087
837.275146	86.437675
837.229004	93.625710
837.182861	90.010193
837.136780	79.196182
837.090637	71.984909
837.044434	93.565285
836.998352	79.157845
836.952148	97.132584
836.906006	97.116905
836.859863	68.330498
836.813721	68.319466
836.767578	68.308441
836.721375	79.081215
836.675171	79.068451
836.629028	82.649132
836.582825	89.821510
836.536743	86.214729
836.490540	75.425713
836.444336	86.186897
836.398132	68.220276
836.351990	114.878761
836.305786	89.734543
836.259644	107.664070
836.213440	89.705574
836.167236	93.278732
836.121094	100.437805
836.074890	75.316193
836.028625	93.233566
835.982422	86.047859
835.936218	93.203461
835.890076	82.435905
835.843872	78.838997
835.797668	46.579159
835.751404	64.483810
835.705261	103.873802
835.658997	68.044258
835.612793	71.613976
835.566528	75.182526
835.520325	110.965813
835.474121	78.737213
835.427856	85.881271
835.381653	93.023018
835.335388	114.471375
835.289185	96.569626
835.242920	85.825806
835.196716	96.538437
835.150513	96.522842
835.104248	100.081596
835.057922	85.770370
835.011719	92.902893
834.965454	78.597443
834.919250	82.156784
834.872986	103.572258
834.826660	92.842888
834.780457	85.687286
834.734192	82.103714
834.687927	64.244705
834.641663	78.508621
834.595398	96.335922
834.549072	74.915833
834.502869	82.037422
834.456543	71.325363
834.410278	78.445221
834.364014	96.258133
834.317688	89.113503
834.271423	99.790993
834.225159	99.774872
834.178833	89.070312
834.132568	67.682503
834.086243	103.288177
834.039978	124.638008
833.993652	121.057358
833.947388	113.917923
833.901062	64.068481
833.854736	49.822987
833.808472	85.397034
833.762146	88.940865
833.715820	92.483551
833.669495	110.251038
833.623169	81.785934
833.576843	81.772720
833.530518	88.869026
833.484192	88.854660
833.437866	103.054749
833.391541	106.591133
833.345215	95.916512
833.298889	95.901016
833.252563	67.474991
833.206177	92.319275
833.159851	88.754181
833.113525	53.243904
833.067200	106.470596
833.020813	102.904938
832.974487	53.218086
832.928101	81.587875
832.881775	60.294334
832.835388	106.384567
832.789062	113.458527
832.742676	70.900116
832.696289	74.433090
832.649963	99.228073
832.603577	81.495598
832.557190	113.366844
832.510803	99.179955
832.464417	92.080780
832.418091	88.524895
832.371643	88.510582
832.325317	81.416573
832.278870	102.639076
832.232483	88.467659
832.186096	95.529617
832.139709	109.664421
832.093323	91.961739
832.046936	109.628960
832.000549	74.252769
831.954102	88.381859
831.907776	102.506378
831.861328	91.887405
831.814880	102.473228
831.768494	113.055618
831.722046	127.167000
831.675659	116.550896
831.629272	130.657150
831.582825	116.513199
831.536438	95.313560
831.489929	91.768585
831.443542	144.688599
831.397156	112.909416
831.350708	127.002548
831.304260	126.982002
831.257812	105.801224
831.211365	119.888657
831.164917	123.394829
831.118530	84.599907
831.072021	109.257202
831.025574	123.334953
830.979065	91.605431
830.932678	105.681473
830.886169	84.531502
830.839722	91.560974
830.793274	95.067169
830.746826	112.653969
830.700378	116.155609
830.653931	119.656113
830.607422	109.080566
830.560974	133.690033
830.514465	98.492508
830.468018	126.612732
830.421509	109.009987
830.375061	140.635284
830.328552	133.581909
830.282043	108.957077
830.235535	105.425270
830.189087	91.353775
830.142578	115.930260
830.096130	115.911499
830.049622	151.011749
830.003113	122.896652
829.956543	105.322937
829.910095	105.305893
829.863525	129.856247
829.817078	122.817108
829.770569	129.814209
829.723999	119.269432
829.677490	133.279556
829.630981	98.190086
829.584473	122.717743
829.537964	126.203529
829.491455	136.698364
829.444885	136.676224
829.398376	129.646210
829.351868	150.645523
829.305298	150.621140
829.258789	140.089996
829.212219	161.077423
829.165710	143.545761
829.119141	150.523621
829.072571	136.499313
829.026001	157.473709
828.979492	153.949356
828.932922	167.917572
828.886353	139.908646
828.839783	132.891693
828.793274	143.359924
828.746704	115.368576
828.700134	153.799850
828.653564	87.372131
828.606995	150.255722
828.560425	143.243896
828.513794	125.754753
828.467285	181.616333
828.420715	150.158417
828.374146	150.134094
828.327515	129.164230
828.280945	160.556549
828.234375	139.591782
828.187744	125.612259
828.141113	143.035233
828.094604	143.012070
828.047974	160.426575
828.001404	167.374527
827.954773	149.915390
827.908142	135.947739
827.861572	139.410995
827.814941	135.903702
827.768311	101.040230
827.721680	139.343262
827.675110	135.837662
827.628479	107.956039
827.581909	135.793655
827.535278	156.659607
827.488586	132.268890
827.441956	139.207855
827.395386	132.226044
827.348694	163.516235
827.302063	142.618713
827.255493	149.551483
827.208862	163.436768
827.162170	156.456650
827.115540	146.002548
827.068848	166.833008
827.022217	152.905487
826.975647	163.304382
826.928955	156.329926
826.882263	163.251465
826.835571	128.496277
826.789001	197.921646
826.742249	118.039391
826.695618	145.789734
826.648987	159.648590
826.602295	142.272415
826.555603	156.127350
826.508972	142.226303
826.462280	121.393021
826.415588	169.922684
826.368896	145.624405
826.322266	131.734055
826.275574	162.907806
826.228882	131.691345
826.182190	173.250000
826.135498	142.041962
826.088806	145.482819
826.042053	148.922546
825.995361	135.047394
825.948669	169.647415
825.901978	141.926865
825.855286	176.514542
825.808594	134.959824
825.761841	148.777740
825.715149	162.591156
825.668396	179.858917
825.621765	172.913223
825.575012	148.681259
825.528320	145.200012
825.481567	169.372543
825.434814	176.257111
825.388123	169.317612
825.341370	148.560745
825.294617	134.719284
825.247864	165.781464
825.201172	158.848145
825.154419	141.559082
825.107727	144.988220
825.060974	176.028564
825.014160	165.647079
824.967468	169.070633
824.920654	131.094727
824.873962	162.117172
824.827148	155.193405
824.780396	151.720047
824.733643	151.695435
824.686890	182.694397
824.640137	161.985733
824.593384	161.959457
824.546631	179.160110
824.499817	155.017258
824.453003	175.657715
824.406311	161.854370
824.359497	158.384964
824.312744	189.342606
824.265930	144.565445
824.219177	182.398209
824.172302	182.368622
824.125549	192.660110
824.078735	209.827850
824.031982	165.083649
823.985168	209.759750
823.938354	154.715698
823.891541	161.565720
823.844788	171.850540
823.797974	161.513290
823.751221	188.974243
823.704346	185.508224
823.657532	188.912903
823.610718	188.882248
823.563904	164.815933
823.517090	209.419586
823.470276	185.357742
823.423462	175.031677
823.376648	185.297562
823.329773	209.283646
823.282959	154.364517
823.236084	198.926407
823.189331	202.323334
823.142456	216.005096
823.095642	209.113831
823.048767	198.797272
823.001953	167.922150
822.955017	174.747742
822.908203	202.126328
822.861328	205.518829
822.814514	195.211182
822.767639	188.331085
822.720764	198.571442
822.673950	174.577576
822.627075	160.859100
822.580200	201.896713
822.533386	198.442505
822.486450	208.672882
822.439636	198.378067
822.392700	184.666824
822.345825	188.056030
822.298950	242.723816
822.252075	218.757767
822.205200	208.469635
822.158325	191.350876
822.111450	184.486954
822.064514	222.031555
822.017639	204.918915
821.970764	283.425140
821.923828	238.994415
821.876953	208.232742
821.830078	249.156067
821.783142	232.052887
821.736267	218.367233
821.689331	211.508896
821.642456	228.528946
821.595520	204.619537
821.548584	218.225372
821.501648	214.780701
821.454712	187.476501
821.407837	228.343369
821.360901	218.083603
821.314026	231.676178
821.267029	183.948242
821.220154	207.759628
821.173157	245.184631
821.126221	241.740005
821.079285	207.658371
821.032349	224.643036
820.985413	251.831558
820.938477	255.193207
820.891541	217.729492
820.844604	234.701462
820.797668	251.667908
820.750671	214.222992
820.703735	227.787415
820.656738	248.145950
820.609802	237.909500
820.562866	190.296661
820.515930	258.217773
820.468933	230.999420
820.421997	234.358368
820.375000	237.716217
820.328003	230.886780
820.281006	241.033783
820.234009	220.628860
820.187073	244.349152
820.140076	247.702621
820.093140	261.232880
820.046082	240.837921
819.999146	261.147949
819.952148	264.496490
819.905090	281.405609
819.858093	301.699127
819.811096	311.818054
819.764099	288.045929
819.717163	260.893311
819.670105	267.626221
819.623108	277.744080
819.576111	250.606339
819.529114	301.355896
819.482117	277.608612
819.435059	297.872986
819.388062	247.058990
819.341064	297.776093
819.294006	304.494202
819.247009	314.592834
819.199951	294.248657
819.152954	280.674316
819.105896	277.247620
819.058838	277.202515
819.011841	300.817200
818.964783	256.835815
818.917725	364.917847
818.870667	344.588593
818.823669	303.999298
818.776611	374.871460
818.729553	307.277069
818.682434	324.107666
818.635376	391.566406
818.588379	364.502502
818.541321	344.196350
818.494263	340.766449
818.447144	387.938263
818.400146	350.774048
818.353027	364.206085
818.306030	320.314331
818.258911	327.004578
818.211853	299.986298
818.164795	340.378479
818.117676	320.105896
818.070618	350.374695
818.023499	333.475464
817.976440	373.835876
817.929321	343.468964
817.882202	326.579102
817.835144	366.920898
817.788025	373.592590
817.740967	370.166626
817.693848	370.106384
817.646729	373.410187
817.599670	400.257477
817.552551	417.007111
817.505432	366.503052
817.458374	352.995911
817.411255	389.912964
817.364075	389.849487
817.316956	376.345123
817.269897	430.038696
817.222717	386.299988
817.175598	396.312836
817.128479	342.519745
817.081360	416.328735
817.034180	372.620697
816.987061	375.916412
816.939941	342.296722
816.892822	385.859924
816.845642	432.763702
816.798523	379.025848
816.751404	358.842133
816.704224	372.196167
816.657104	472.712738
816.609985	412.299286
816.562744	415.583618
816.515625	398.761261
816.468506	455.652924
816.421265	432.129822
816.374146	405.265045
816.326965	478.871582
816.279785	515.623840
816.232605	441.891327
816.185486	528.844360
816.138306	431.707672
816.091125	491.865814
816.043945	458.330872
815.996765	498.395447
815.949585	434.770813
815.902405	464.794617
815.855164	404.539459
815.807983	471.328674
815.760803	424.460938
815.713623	431.075104
815.666443	447.710480
815.619263	460.999847
815.572083	434.204468
815.524841	460.849640
815.477661	480.808197
815.430420	450.684235
815.383240	494.002960
815.335999	487.247833
815.288757	487.168427
815.241577	467.071655
815.194336	517.030762
815.147156	520.281677
815.099915	476.847137
815.052673	540.116394
815.005432	523.360840
814.958252	493.278839
814.911011	433.214844
814.863770	486.454285
814.816528	519.688354
814.769287	526.265198
814.722046	482.886169
814.674866	512.774841
814.627563	502.703735
814.580322	529.250732
814.533081	485.899445
814.485840	529.078186
814.438599	472.433044
814.391296	585.455383
814.344055	588.685791
814.296753	568.637634
814.249573	555.245605
814.202209	561.803650
814.154968	611.568115
814.107727	614.791626
814.060486	604.723389
814.013184	601.302673
813.965881	604.526184
813.918640	597.785522
813.871338	640.854370
813.824097	627.470093
813.776794	650.603577
813.729431	690.323853
813.682190	617.208130
813.634949	620.425293
813.587585	633.593018
813.540283	709.773804
813.492981	633.386353
813.445740	629.967407
813.398376	653.070190
813.351074	676.165405
813.303833	636.287170
813.256531	702.452454
813.209167	715.589539
813.161865	741.971741
813.114502	721.979675
813.067261	798.021667
813.019958	771.405457
812.972595	857.345093
812.925232	807.560120
812.877930	866.992737
812.830566	830.456726
812.783325	856.785645
812.735962	883.105957
812.688599	796.980530
812.641296	724.108948
812.593933	704.155396
812.546631	667.681580
812.499207	660.963013
812.451904	617.899536
812.404541	611.191223
812.357239	696.974548
812.309875	653.926270
812.262512	564.662292
812.215149	630.601746
812.167786	564.477966
812.120361	636.996887
812.073059	577.493591
812.025635	610.393555
811.978333	547.615051
811.930969	653.072754
811.883545	613.392456
811.836182	639.670471
811.788818	649.456238
811.741394	682.312134
811.694031	586.626709
811.646667	603.006531
811.599304	685.272522
811.551880	632.455994
811.504456	589.537170
811.457092	681.643921
811.409668	618.976501
811.362305	651.794312
811.314941	585.860840
811.267517	605.510010
811.220154	542.895874
811.172729	648.078918
811.125305	582.188965
811.077881	608.403198
811.030457	651.049500
810.983032	558.890625
810.935608	640.975708
810.888184	670.449646
810.840820	653.910217
810.793396	637.376221
810.745911	656.981506
810.698486	663.442932
810.651062	686.321411
810.603638	673.076050
810.556213	669.683350
810.508728	679.420593
810.461365	718.689880
810.413879	698.885559
810.366394	767.664307
810.318970	675.696594
810.271545	655.908936
810.224060	718.102905
810.176636	701.593201
810.129211	675.255066
810.081726	668.589905
810.034302	724.187378
809.986816	658.542419
809.939331	681.365356
809.891907	717.281860
809.844421	690.966797
809.796936	684.305481
809.749451	756.214050
809.702026	700.447388
809.654480	723.241028
809.607056	798.379883
809.559570	804.792419
809.512085	814.473816
809.464600	797.988464
809.417114	794.588074
809.369568	797.727539
809.322144	820.479004
809.274597	875.906067
809.227173	771.194153
809.179626	764.533630
809.132141	859.143005
809.084656	819.808472
809.037109	793.549377
808.989563	796.684692
808.942078	799.819031
808.894592	773.575928
808.847107	802.820923
808.799561	789.637817
808.752014	835.182678
808.704529	789.379517
808.656982	812.080017
808.609497	838.033813
808.561951	844.417358
808.514404	818.201111
808.466858	928.881226
808.419373	827.709595
808.371826	879.704834
808.324280	908.879639
808.276733	892.445496
808.229187	882.529785
808.181641	872.617310
808.134094	885.496582
808.086548	901.626526
808.039001	907.987915
807.991455	832.999573
807.943909	901.184082
807.896301	835.979858
807.848755	845.599976
807.801208	848.713379
807.753662	845.323242
807.706055	835.432800
807.658508	845.046631
807.610901	848.158020
807.563416	932.496216
807.515747	906.354919
807.468201	922.446838
807.420654	954.771118
807.373108	935.132874
807.325439	944.719238
807.277832	931.580872
807.230347	986.600159
807.182739	992.928345
807.135132	973.299866
807.087463	1038.016602
807.039917	1018.387024
806.992310	995.521118
806.944702	1079.655640
806.897156	1014.645264
806.849548	917.244751
806.801880	981.906921
806.754272	1014.147034
806.706665	978.345825
806.659058	984.663696
806.611450	1007.171936
806.563843	1003.769104
806.516235	1042.453979
806.468567	1013.151123
806.420959	1077.712646
806.373291	1093.715454
806.325684	1109.712891
806.278076	1122.470337
806.230469	1115.817993
806.182800	1183.543457
806.135132	1108.986084
806.087524	1166.992432
806.039856	1212.051270
805.992249	1179.536621
805.944580	1234.271729
805.896973	1188.841919
805.849243	1292.007812
805.801636	1307.943604
805.753967	1230.234253
805.706299	1230.032715
805.658691	1284.705566
805.611023	1248.993896
805.563354	1229.428223
805.515625	1251.811035
805.468018	1225.799683
805.420349	1261.076660
805.372681	1289.892578
805.324951	1415.425171
805.277283	1341.048706
805.229614	1418.184448
805.181885	1408.284180
805.134216	1414.497559
805.086548	1527.020508
805.038879	1507.443970
804.991211	1581.268677
804.943481	1577.789429
804.895752	1683.772827
804.848083	1754.313110
804.800354	1647.818481
804.752686	1747.302368
804.705017	1814.580078
804.657288	1811.065796
804.609619	1891.176025
804.561890	1900.513306
804.514160	1813.390503
804.466431	1703.793335
804.418701	1697.085571
804.371033	1610.038818
804.323303	1555.151733
804.275513	1654.487305
804.227844	1528.945312
804.180115	1515.848389
804.132385	1528.443970
804.084595	1531.403809
804.036865	1566.462280
803.989197	1367.220215
803.941467	1376.622803
803.893738	1424.522827
803.845947	1459.575684
803.798218	1558.763550
803.750488	1465.510498
803.702759	1401.144531
803.654968	1532.350708
803.607178	1484.020874
803.559448	1387.636475
803.511719	1384.204590
803.463928	1367.959351
803.416199	1361.328613
803.368408	1450.778198
803.320679	1444.135986
803.272888	1373.464966
803.225159	1437.260132
803.177307	1526.638306
803.129578	1558.387573
803.081787	1590.126465
803.033997	1503.494629
802.986206	1605.596680
802.938416	1608.531128
802.890686	1761.739990
802.842896	1739.073120
802.795105	1895.406494
802.747253	1843.963013
802.699524	1782.950562
802.651672	1862.526123
802.603882	1970.823364
802.556091	2021.598755
802.508301	2030.846436
802.460510	2135.869873
802.412720	1995.066650
802.364929	2052.187744
802.317078	2138.009521
802.269226	1955.797974
802.221436	2223.437988
802.173645	2124.198730
802.125793	2343.888672
802.078003	2356.257568
802.030151	2272.984863
801.982361	2530.790527
801.934509	2594.112549
801.886719	2561.822998
801.838867	2621.933105
801.791016	2818.991211
801.743164	2920.441162
801.695312	3117.385498
801.647522	3142.343506
801.599609	3180.025879
801.551819	3262.253418
801.503967	3503.562256
801.456055	3299.361816
801.408203	3632.837402
801.360352	3498.655762
801.312500	3577.582764
801.264709	3764.588867
801.216797	3662.241455
801.168945	3947.705566
801.121094	3902.565430
801.073181	3876.504639
801.025391	3936.229492
800.977478	4132.520996
800.929565	4281.109375
800.881714	4302.633301
800.833862	4441.620117
800.785950	4475.808105
800.738037	4519.505859
800.690247	4544.149902
800.642334	4803.569824
800.594421	4767.886230
800.546570	4662.435547
800.498596	4626.786133
800.450745	4207.495605
800.402832	4108.529297
800.354980	3825.756104
800.307068	3850.480469
800.259155	3729.440918
800.211243	3605.272705
800.163330	3332.270264
800.115417	3224.043457
800.067505	3043.021973
800.019653	2979.201904
799.971680	2934.395508
799.923767	2766.170654
799.875854	2753.058105
799.827942	2641.868408
799.779968	2714.192383
799.732117	2682.117432
799.684143	2596.292725
799.636230	2595.865967
799.588257	2598.600342
799.540344	2670.871338
799.492371	2578.784424
799.444458	2628.916260
799.396545	2502.114746
799.348572	2640.686768
799.300598	2441.286133
799.252686	2611.399170
799.204712	2497.312012
799.156738	2591.600586
799.108826	2414.431641
799.060852	2401.412109
799.012878	2486.204346
798.964966	2255.512207
798.916992	2223.600830
798.869019	2251.616699
798.821045	2323.765625
798.773071	2257.181152
798.725098	2212.682129
798.677124	2269.044189
798.629150	2215.105225
798.581116	2195.838379
798.533203	2167.127930
798.485168	2201.414551
798.437256	2172.712646
798.389221	2216.431885
798.341248	2244.397705
798.293274	2247.175537
798.245300	2117.787598
798.197266	2174.071777
798.149292	2104.507568
798.101257	2129.323242
798.053223	2103.814941
798.005310	2024.863770
797.957275	2033.961548
797.909241	2008.481445
797.861206	1910.728882
797.813232	1907.272217
797.765198	1677.620605
797.717224	1737.025269
797.669189	1774.426270
797.621155	1689.352539
797.573120	1704.772217
797.525146	1679.379272
797.477112	1628.886719
797.429016	1729.034302
797.381042	1681.687500
797.333008	1646.904053
797.284912	1668.588013
797.236877	1589.915039
797.188843	1674.309326
797.140808	1605.065918
797.092773	1495.098389
797.044800	1557.529419
796.996704	1529.072876
796.948608	1513.156860
796.900635	1450.261353
796.852539	1509.526733
796.804504	1474.833984
796.756409	1446.414185
796.708374	1289.663330
796.660339	1264.413086
796.612244	1286.109375
796.564209	1279.640137
796.516113	1341.993042
796.468018	1263.580200
796.419983	1263.371948
796.371887	1247.530640
796.323792	1194.180908
796.275757	1250.245239
796.227600	1268.789795
796.179504	1096.728638
796.131470	1221.510742
796.083374	1211.938721
796.035278	1299.184204
795.987183	1242.764648
795.939087	1236.315796
795.891052	1158.074707
795.842896	1164.125854
795.794800	1163.933960
795.746643	1151.262329
795.698547	1157.311401
795.650452	1091.623291
795.602356	1057.140869
795.554260	1066.320312
795.506165	1025.618530
795.458069	1062.851929
795.409912	1040.862305
795.361816	947.215454
795.313660	1077.903076
795.265564	1034.117920
795.217407	1055.747559
795.169312	1021.321838
795.121216	1027.380005
795.073059	1092.578491
795.024902	1067.500366
794.976746	1051.765747
794.928589	1110.705444
794.880493	1091.858032
794.832336	998.372192
794.784180	1044.852783
794.736023	1072.662964
794.687866	1088.029419
794.639709	1084.741821
794.591553	1003.764465
794.543396	1037.777222
794.495239	931.981506
794.447144	1046.753174
794.398926	922.357300
794.350830	1096.088989
794.302612	1086.594482
794.254456	1139.183960
794.206238	1098.650146
794.158081	1120.190063
794.109924	1129.312744
794.061707	1051.576538
794.013550	1101.026733
793.965393	1100.845093
793.917236	1035.553711
793.869019	1081.882080
793.820862	991.819946
793.772583	1075.327271
793.724426	985.295776
793.676270	951.056274
793.628052	1015.944519
793.579895	1006.486206
793.531677	978.452759
793.483459	972.099548
793.435242	1012.178650
793.387085	993.442566
793.338806	974.712585
793.290649	1110.679565
793.242371	962.017639
793.194214	1101.034546
793.145996	1171.975220
793.097778	1153.231201
793.049561	1075.759155
793.001343	1168.304199
792.953064	1245.367310
792.904846	1319.315186
792.856628	1368.524902
792.808411	1303.436035
792.760193	1457.630859
792.711914	1429.600952
792.663696	1586.811035
792.615417	1614.329102
792.567200	1580.114624
792.518982	1589.110718
792.470703	1585.763062
792.422485	1582.416504
792.374207	1480.379150
792.325928	1409.211426
792.277710	1384.313843
792.229492	1257.698853
792.181152	1306.804443
792.132935	1334.322754
792.084656	1121.508667
792.036377	1210.659546
791.988098	1204.299438
791.939819	1231.816406
791.891602	1166.953125
791.843323	1145.210693
791.795044	1209.659790
791.746765	1184.839844
791.698486	1209.260010
791.650208	1218.289673
791.601929	1325.747681
791.553650	1282.472046
791.505371	1337.609375
791.457031	1186.739990
791.408752	1186.543823
791.360474	1293.918091
791.312195	1272.193726
791.263916	1238.186768
791.215576	1216.478760
791.167297	1203.992065
791.118958	1280.565552
791.070679	1225.086792
791.022339	1292.421753
790.974060	1292.208008
790.925720	1258.236816
790.877441	1380.763306
790.829102	1365.195801
790.780823	1328.161865
790.732422	1429.148071
790.684143	1370.651367
790.635803	1324.437256
790.587524	1385.524658
790.539185	1422.073364
790.490845	1388.130859
790.442505	1354.199463
790.394104	1452.000854
790.345825	1439.509521
790.297424	1469.894287
790.249146	1540.071899
790.200745	1530.633423
790.152405	1515.076416
790.104065	1594.392456
790.055725	1584.949463
790.007385	1520.443115
789.958984	1495.721802
789.910706	1556.638916
789.862305	1608.362671
789.813904	1522.494507
789.765564	1433.597900
789.717224	1424.192139
789.668823	1375.065308
789.620483	1240.409180
789.572083	1258.531982
789.523682	1236.944458
789.475342	1084.055908
789.427002	1077.770142
789.378601	989.064392
789.330200	964.483398
789.281799	927.703857
789.233459	918.396912
789.185059	875.535828
789.136658	887.591492
789.088257	875.245972
789.039856	844.609802
788.991455	826.178223
788.943115	813.848938
788.894714	813.714233
788.846252	801.391052
788.797913	770.792236
788.749451	825.494568
788.701050	819.266663
788.652649	822.176086
788.604248	858.575073
788.555847	812.771606
788.507385	879.595886
788.458984	800.330139
788.410522	742.388611
788.362122	769.644348
788.313660	833.389832
788.265259	815.005432
788.216858	854.397705
788.168396	732.653931
788.119995	714.295227
788.071533	680.747375
788.023071	738.367004
787.974670	720.016418
787.926208	634.846008
787.877747	613.481567
787.829346	610.343384
787.780884	643.638611
787.732422	622.283264
787.684021	585.759888
787.635559	540.145020
787.587097	497.579224
787.538635	542.999512
787.490173	509.546387
787.441711	479.136841
787.393250	545.761658
787.344788	469.883545
787.296326	445.557617
787.247803	478.819305
787.199341	439.349945
787.150879	448.365631
787.102417	408.914368
787.053894	381.590149
787.005432	384.554901
786.956909	348.161285
786.908508	345.076569
786.859985	338.966400
786.811523	369.170044
786.763000	360.032379
786.714478	347.872772
786.666016	314.545837
786.617493	341.709473
786.569031	356.770203
786.520508	338.573181
786.471985	380.831696
786.423523	323.351044
786.375000	341.426270
786.326477	326.264801
786.277954	277.883179
786.229431	317.096680
786.180908	323.083008
786.132446	280.763885
786.083923	244.495743
786.035339	253.509079
785.986816	256.484497
785.938354	259.458923
785.889771	235.284164
785.841248	262.388794
785.792725	229.175186
785.744202	244.211975
785.695679	211.012375
785.647095	223.033203
785.598572	219.982742
785.550049	228.985123
785.501465	204.847443
785.452942	225.897186
785.404358	186.710678
785.355835	216.789322
785.307251	189.659180
785.258728	204.677521
785.210205	204.643555
785.161621	213.636490
785.113037	177.499451
785.064453	162.430161
785.015930	249.619720
784.967346	183.425003
784.918762	183.394562
784.870239	201.399933
784.821594	231.421204
784.773071	195.323120
784.724487	216.322006
784.675903	147.194702
784.627319	195.225861
784.578735	204.202362
784.530151	207.170944
784.481567	174.114777
784.432983	198.097702
784.384399	225.073639
784.335754	204.032883
784.287170	221.998917
784.238586	212.963577
784.190002	224.924164
784.141357	230.883789
784.092773	227.847458
784.044128	218.817123
783.995605	188.810806
783.946960	179.789948
783.898376	182.756088
783.849670	203.694244
783.801086	185.690369
783.752502	203.626572
783.703857	215.568787
783.655212	173.623795
783.606628	185.567001
783.558044	191.521210
783.509338	218.417587
783.460693	167.525375
783.412109	167.497528
783.363464	185.412888
783.314819	146.511642
783.266174	146.487289
783.217529	131.517746
783.168884	149.427139
783.120300	155.378403
783.071594	113.526886
783.022949	125.456223
782.974304	140.368149
782.925659	125.414520
782.877014	113.451416
782.828369	131.342957
782.779663	125.351982
782.731018	143.235596
782.682373	98.458099
782.633667	101.424812
782.585022	89.477600
782.536377	137.176178
782.487671	113.300606
782.439026	143.092758
782.390320	110.282326
782.341614	128.144638
782.292969	128.123322
782.244263	142.997604
782.195557	151.909683
782.146912	92.321899
782.098206	154.836777
782.049500	145.879623
782.000854	125.018883
781.952087	136.902664
781.903442	136.879883
781.854736	121.981346
781.806030	163.606293
781.757324	169.527405
781.708618	184.367554
781.659912	187.310043
781.611206	163.497437
781.562500	178.331161
781.513794	184.244873
781.465027	163.415833
781.416382	175.271454
781.367615	136.629578
781.318909	166.303986
781.270203	178.153183
781.221436	154.373734
781.172791	160.284500
781.124023	181.031982
781.075256	195.838074
781.026550	189.871979
780.977844	195.772888
780.929077	157.185394
780.880310	183.846634
780.831604	174.921707
780.782837	174.892593
780.734131	160.044525
780.685364	165.944473
780.636597	154.065643
780.587891	159.964600
780.539062	118.472572
780.490356	118.452843
780.441589	136.198090
780.392822	130.254730
780.344055	147.992096
780.295288	106.536568
780.246521	156.819382
780.197815	130.167984
780.148987	112.399086
780.100281	147.868896
780.051453	115.318527
780.002686	165.557999
779.953918	121.191917
779.905151	103.439278
779.856384	124.106453
779.807556	103.404816
779.758789	100.433662
779.710022	124.044441
779.661194	91.541351
779.612427	88.573647
779.563599	91.510849
779.514832	88.544128
779.466003	73.774483
779.417236	97.366089
779.368408	82.599884
779.319580	70.788101
779.270813	88.470375
779.221985	79.610069
779.173218	73.700745
779.124390	82.531075
779.075562	79.570267
779.026733	88.396675
778.977966	94.274071
778.929138	64.802620
778.880310	106.022964
778.831482	79.503967
778.782593	94.211220
778.733826	88.308289
778.684937	85.350449
778.636108	58.852562
778.587341	70.611298
778.538513	70.599525
778.489624	76.470070
778.440796	61.753986
778.391968	70.564217
778.343079	49.974648
778.294250	58.783897
778.245422	44.080570
778.196594	64.640724
778.147705	64.629936
778.098816	70.493629
778.049988	67.545128
778.001099	64.597603
777.952271	64.586830
777.903381	67.511330
777.854553	46.956566
777.805664	67.488800
777.756836	52.808510
777.707886	55.733017
777.659058	38.126755
777.610168	55.714420
777.561279	55.705124
777.512451	52.764469
777.463562	43.963051
777.414673	41.025333
777.365784	70.317406
777.316895	46.870449
777.268005	41.004799
777.219116	67.353783
777.170227	64.414604
777.121277	38.056820
777.072388	20.488714
777.023560	46.823528
776.974670	46.815712
776.925720	23.403948
776.876831	55.575096
776.827881	46.792267
776.778992	52.632511
776.730103	43.853104
776.681152	58.461040
776.632263	37.993332
776.583313	49.675289
776.534424	32.137466
776.485535	52.579800
776.436584	37.967960
776.387695	40.881744
776.338684	43.794552
776.289795	67.140427
776.240906	46.698586
776.191956	43.772610
776.143005	32.094551
776.094055	43.757988
776.045105	52.500813
775.996216	55.408268
775.947266	40.820324
775.898315	61.220257
775.849365	40.806686
775.800415	26.228487
775.751465	37.879261
775.702515	46.612839
775.653564	40.779419
775.604553	43.684933
775.555664	46.589474
775.506653	43.670334
775.457703	52.395641
775.408752	40.745354
775.359802	37.828648
775.310852	49.459965
775.261841	46.542774
775.212891	31.992809
775.163879	49.435165
775.114929	23.259720
775.065918	40.697704
775.016968	37.784409
774.968018	40.684097
774.918945	52.299381
774.869995	40.670494
774.820984	29.045496
774.772034	63.889404
774.723022	40.650097
774.674011	58.061855
774.625061	49.344322
774.576050	55.140316
774.527039	60.934368
774.478027	26.110361
774.429016	55.112656
774.380005	58.003616
774.330994	49.294827
774.281982	40.588951
774.232971	37.683434
774.183960	34.778889
774.134949	55.057365
774.085876	31.869984
774.036926	31.864653
773.987915	34.755623
773.938904	52.124710
773.889832	40.534660
773.840820	43.422726
773.791809	52.098549
773.742737	63.665352
773.693665	37.614140
773.644653	31.822021
773.595581	34.709126
773.546570	37.595257
773.497559	31.806047
773.448486	43.364624
773.399475	31.795401
773.350403	23.120058
773.301331	40.453327
773.252319	28.890398
773.203247	37.551228
773.154236	31.768797
773.105103	31.763479
773.056030	51.967899
773.007019	31.752844
772.957947	20.202972
772.908875	46.170490
772.859802	28.851725
772.810730	34.616272
772.761658	40.378887
772.712585	34.604679
772.663513	28.832403
772.614441	25.944817
772.565369	31.705021
772.516296	25.936127
772.467163	31.694401
772.418091	34.569916
772.368958	25.923096
772.319946	28.798615
772.270813	40.311306
772.221741	28.788965
772.172668	28.784143
772.123535	25.901388
772.074402	40.284298
772.025330	28.769676
771.976257	23.011885
771.927124	31.636040
771.877991	14.377608
771.828918	31.625439
771.779785	14.372790
771.730652	37.362991
771.681580	17.241568
771.632446	45.969807
771.583313	25.853683
771.534180	20.105049
771.485046	22.973349
771.435974	22.969498
771.386780	11.482823
771.337708	22.961796
771.288513	28.697433
771.239380	34.431149
771.190247	31.556593
771.141113	22.946402
771.091980	31.546011
771.042908	22.938707
770.993713	51.603436
770.944519	11.465508
770.895447	25.793066
770.846313	17.192493
770.797119	22.919479
770.747925	11.457818
770.698792	34.367687
770.649658	22.907949
770.600525	22.904106
770.551331	20.037731
770.502197	34.344635
770.453003	25.754156
770.403870	31.472021
770.354675	34.327354
770.305481	25.741196
770.256287	14.298265
770.207153	34.310078
770.157959	22.869547
770.108765	25.723923
770.059631	28.577341
770.010437	42.858818
769.961243	22.854200
769.912048	25.706661
769.862854	25.702347
769.813660	25.698032
769.764465	28.548576
769.715271	22.835028
769.666077	5.707799
769.616882	31.387625
769.567688	14.264707
769.518494	25.672161
769.469238	17.111900
769.420044	25.663542
769.370850	28.510260
769.321594	22.804379
769.272461	17.100412
769.223206	19.947130
769.173950	28.491116
769.124817	25.637699
769.075562	22.785238
769.026306	45.562824
768.977112	25.624784
768.927856	8.540160
768.878662	8.538726
768.829407	5.691528
768.780212	28.452858
768.730957	22.758463
768.681763	36.976292
768.632446	45.501637
768.583252	28.433744
768.533997	25.586071
768.484741	34.109032
768.435486	17.051649
768.386230	25.573177
768.337036	17.045919
768.287781	22.724073
768.238525	17.040192
768.189209	19.876883
768.140015	22.712620
768.090759	25.547403
768.041443	11.352493
767.992188	8.512938
767.942932	25.534525
767.893677	22.693541
767.844421	19.853510
767.795105	25.521650
767.745850	17.011574
767.696594	22.678284
767.647278	42.514633
767.598022	8.501497
767.548767	25.500204
767.499451	31.161676
767.450134	25.491631
767.400879	31.151197
767.351562	25.483057
767.302307	31.140722
767.252991	25.474487
767.203735	25.470203
767.154419	16.977280
767.105103	28.290709
767.055786	19.800165
767.006470	19.796835
766.957214	25.448792
766.907837	8.481503
766.858582	19.786846
766.809265	19.783516
766.759949	22.605930
766.710632	31.077925
766.661316	31.072695
766.612000	19.770206
766.562683	19.766880
766.513367	11.293459
766.464050	31.051786
766.414673	28.224148
766.365356	8.465819
766.316040	33.857578
766.266724	16.925940
766.217346	22.564121
766.168030	31.020445
766.118713	22.556526
766.069336	33.829094
766.020020	2.818617
765.970703	16.908854
765.921326	16.906006
765.871948	33.806320
765.822632	11.266876
765.773254	39.427429
765.723938	14.078854
765.674561	25.337669
765.625244	11.259291
765.575867	8.443046
765.526489	28.138746
765.477112	8.440203
765.427795	19.690489
765.378418	14.062266
765.329041	14.059898
765.279663	30.926565
765.230286	19.677227
765.180908	19.673912
765.131531	22.480684
765.082153	30.905733
765.032715	11.236555
764.983337	19.660658
764.934021	19.657347
764.884644	25.269472
764.835205	14.036231
764.785828	11.227093
764.736450	16.837801
764.687073	22.446619
764.637634	16.832127
764.588257	11.219527
764.538818	19.630863
764.489441	22.431492
764.440063	14.017319
764.390625	14.014956
764.341187	30.827707
764.291809	19.614325
764.242432	11.206297
764.192932	14.005509
764.143555	19.604408
764.094116	14.000788
764.044739	16.798113
763.995300	19.594494
763.945862	11.194965
763.896484	5.596539
763.847046	19.584583
763.797607	25.175934
763.748169	19.577980
763.698730	22.371059
763.649292	27.959108
763.599854	11.181758
763.550415	22.359743
763.500977	25.150469
763.451538	27.940250
763.402100	16.761324
763.352661	16.758495
763.303162	16.755669
763.253723	25.129263
763.204285	19.541685
763.154846	25.120785
763.105408	16.744364
763.055908	5.580513
763.006470	22.318285
762.957031	19.525204
762.907532	22.310755
762.858032	13.941868
762.808594	16.727419
762.759094	25.086893
762.709656	25.082659
762.660156	22.291933
762.610718	25.074192
762.561218	25.069960
762.511780	16.710485
762.462280	8.353832
762.412781	19.488985
762.363342	16.702024
762.313843	27.832006
762.264343	27.827309
762.214783	22.258087
762.165344	16.690748
762.115845	13.906608
762.066345	11.123407
762.016846	8.341146
761.967346	5.559825
761.917847	19.456102
761.868286	33.347687
761.818848	11.114018
761.769287	8.334105
761.719788	30.553226
761.670288	11.108387
761.620789	13.883139
761.571228	19.433111
761.521729	19.429827
761.472229	13.876103
761.422668	24.972767
761.373169	16.645699
761.323608	27.738144
761.274109	22.186766
761.224609	13.864385
761.175049	11.089634
761.125488	22.175520
761.075989	11.085886
761.026489	24.939028
760.976929	24.934813
760.927307	33.240799
760.877808	22.156786
760.828308	27.691301
760.778687	19.380634
760.729187	19.377359
760.679626	19.374083
760.630066	27.672583
760.580566	5.533581
760.530945	30.429548
760.481384	16.595129
760.431824	13.826936
760.382263	11.059678
760.332703	24.880068
760.283142	30.403830
760.233521	8.290551
760.184021	13.815249
760.134460	19.338078
760.084839	24.859037
760.035278	27.616482
759.985657	24.850628
759.936096	2.760714
759.886536	24.842222
759.836975	33.117359
759.787354	30.352444
759.737732	2.758846
759.688232	27.583796
759.638611	24.821215
759.588989	22.059570
759.539368	30.326777
759.489807	24.808619
759.440186	13.780233
759.390564	2.755580
759.341003	19.285797
759.291443	16.527885
759.241760	16.525089
759.192200	19.276007
759.142578	27.532492
759.092957	16.516699
759.043335	16.513903
758.993713	13.759256
758.944092	13.756927
758.894470	13.754598
758.844849	27.504539
758.795227	24.749893
758.745667	30.244749
758.695984	19.243399
758.646362	16.491549
758.596741	5.496252
758.547058	10.990643
758.497437	16.483171
758.447815	10.986920
758.398193	13.731324
758.348511	16.474798
758.298889	16.472008
758.249268	10.979479
758.199646	19.210833
758.149963	27.439398
758.100281	16.460850
758.050659	19.201071
758.000977	2.742546
757.951355	35.647053
757.901672	24.674545
757.851990	24.670364
757.802368	8.222062
757.752686	13.701114
757.703003	10.959034
757.653320	16.435764
757.603699	10.955319
757.554016	30.122023
757.504333	19.165312
757.454651	30.111813
757.404968	19.158815
757.355286	19.155567
757.305603	30.096502
757.255920	27.355820
757.206238	24.616062
757.156616	10.938618
757.106873	19.139336
757.057190	13.668636
757.007446	16.399582
756.957764	10.931201
756.908081	21.858694
756.858398	16.391241
756.808716	24.582691
756.758972	21.847576
756.709290	24.574354
756.659607	30.030228
756.609924	21.836460
756.560120	19.103662
756.510437	27.286316
756.460693	16.369013
756.411072	27.277060
756.361328	24.545189
756.311584	21.814243
756.261902	24.536861
756.212097	19.080988
756.162415	13.626964
756.112671	19.074512
756.062927	16.346807
756.013184	16.344034
755.963501	27.235434
755.913757	32.676975
755.864014	5.445238
755.814270	21.777254
755.764587	16.330170
755.714844	21.769863
755.665100	16.324625
755.615356	21.762472
755.565552	21.758778
755.515808	19.035698
755.466064	13.594619
755.416321	27.184622
755.366577	24.462006
755.316833	10.870156
755.267029	24.453699
755.217285	27.166162
755.167542	16.296930
755.117737	10.862775
755.067993	10.860929
755.018188	21.718170
754.968445	16.285862
754.918701	16.283094
754.868896	10.853553
754.819092	13.564636
754.769348	21.699732
754.719543	13.560028
754.669739	13.557725
754.619995	32.533012
754.570190	18.974365
754.520386	27.101631
754.470642	16.258215
754.420837	13.546210
754.371033	27.087816
754.321228	21.666571
754.271484	24.370750
754.221619	10.829603
754.171875	21.655525
754.122070	5.412961
754.072205	32.472248
754.022400	21.644485
753.972595	8.115302
753.922852	32.455692
753.872986	32.450172
753.823181	13.518607
753.773376	32.439140
753.723572	29.730824
753.673706	35.130451
753.623901	10.807532
753.574097	24.312813
753.524292	24.308678
753.474426	24.304544
753.424561	29.700502
753.374756	13.497931
753.324951	8.097382
753.275085	13.493340
753.225281	13.491046
753.175415	16.186501
753.125610	21.578329
753.075745	13.484162
753.025879	24.267363
752.976074	10.783659
752.926208	16.172737
752.876343	35.034969
752.826477	32.334469
752.776672	32.328964
752.726807	32.323463
752.676941	18.852146
752.627075	40.390579
752.577209	26.922470
752.527344	13.458944
752.477539	32.295967
752.427673	29.599598
752.377808	16.142487
752.327881	21.519653
752.278015	32.273983
752.228149	37.646572
752.178284	29.574413
752.128357	26.881252
752.078491	16.126005
752.028625	32.246521
751.978760	26.867525
751.928833	21.490360
751.878967	24.172537
751.829102	18.797661
751.779175	10.739691
751.729309	34.898052
751.679382	21.472067
751.629456	29.519062
751.579590	10.732376
751.529663	8.047911
751.479797	16.093081
751.429871	32.180676
751.379944	29.493929
751.330078	21.446476
751.280212	16.082115
751.230225	16.079376
751.180298	16.076635
751.130371	5.357965
751.080505	32.142315
751.030579	24.102629
750.980652	32.131359
750.930725	5.354314
750.880859	2.676701
750.830872	18.733711
750.780945	24.082096
750.731018	24.077991
750.681091	34.773392
750.631165	13.372102
750.581177	34.761536
750.531311	13.367542
750.481384	24.057474
750.431396	40.088955
750.381409	45.426399
750.331482	18.701799
750.281616	16.027380
750.231628	34.720066
750.181641	13.351595
750.131714	16.019182
750.081787	10.677633
750.031799	18.682671
