#Wave		#Intensity
899.963257	112.929314
899.920715	117.446487
899.878235	149.042770
899.835815	112.893066
899.793274	108.359955
899.750793	144.456757
899.708252	117.352272
899.665771	126.359093
899.623230	108.290413
899.580688	126.318542
899.538208	121.787621
899.495667	130.787933
899.453186	162.331375
899.410645	139.762924
899.368103	130.724976
899.325623	135.211044
899.283020	148.708282
899.240540	117.145294
899.197998	108.116768
899.155396	135.124283
899.112854	130.599182
899.070312	108.064735
899.027771	117.051346
898.985229	126.035065
898.942688	67.507950
898.900085	107.995392
898.857544	139.471664
898.814941	116.957474
898.772400	148.422211
898.729797	94.435341
898.687256	98.916389
898.644714	130.368866
898.602112	98.884651
898.559570	143.809143
898.516907	157.266022
898.474304	148.255600
898.431763	116.788704
898.389221	170.663803
898.346558	152.674698
898.304016	166.119339
898.261353	170.581680
898.218750	170.554306
898.176147	107.701233
898.133606	157.039108
898.090942	130.097244
898.048340	130.076370
898.005676	152.478867
897.963074	130.034637
897.920471	165.879654
897.877808	156.888016
897.835205	138.935669
897.792542	174.761993
897.749939	156.812531
897.707275	161.267014
897.664673	129.888702
897.622009	165.693497
897.579346	94.027168
897.536743	134.302979
897.494080	156.661682
897.451477	138.735229
897.408752	143.187592
897.366089	161.060196
897.323425	134.195312
897.280823	152.063629
897.238098	147.567490
897.195435	160.956894
897.152710	125.168625
897.110046	160.905273
897.067383	129.597351
897.024719	138.512878
896.982056	151.892990
896.939331	134.001724
896.896667	192.038345
896.854004	174.146378
896.811279	151.795578
896.768555	174.090530
896.725830	209.767761
896.683167	174.034698
896.640442	138.313095
896.597778	165.056885
896.555054	165.030426
896.512268	147.165695
896.469604	169.436356
896.426880	169.409180
896.384094	169.382019
896.341431	151.528030
896.298706	173.783691
896.255920	169.300537
896.213257	169.273392
896.170532	227.146286
896.127747	133.594040
896.085022	124.667778
896.042236	182.519974
895.999512	164.686737
895.956787	151.309494
895.913940	186.881760
895.871216	169.056381
895.828430	182.373688
895.785767	128.975342
895.742981	168.975082
895.700195	177.839981
895.657410	160.030319
895.614624	164.449234
895.571838	195.529907
895.529114	182.169113
895.486267	177.697464
895.443481	155.460358
895.400757	217.609604
895.357910	182.052307
895.315125	150.945999
895.272339	177.555069
895.229553	164.212097
895.186768	212.997772
895.143921	195.216644
895.101135	230.673599
895.058350	190.718750
895.015442	226.165039
894.972656	155.186417
894.929871	141.861984
894.887024	186.164001
894.844238	181.702393
894.801392	203.828537
894.758545	194.935181
894.715698	181.615021
894.672913	234.733002
894.630066	203.697876
894.587219	194.810211
894.544373	163.791412
894.501526	203.599930
894.458679	212.418045
894.415894	172.561996
894.372986	154.838501
894.330078	207.892670
894.287292	229.972046
894.244446	168.029556
894.201538	181.265991
894.158691	229.861465
894.115845	190.047287
894.072876	220.949799
894.030029	229.750961
893.987183	220.878983
893.944275	238.511063
893.901428	189.895035
893.858521	229.603699
893.815552	216.322647
893.772766	273.670502
893.729858	220.666656
893.686951	220.631287
893.644043	202.948242
893.601135	238.205414
893.558167	242.577744
893.515320	260.178040
893.472412	154.318176
893.429504	224.827591
893.386536	202.753174
893.343689	145.430054
893.300720	246.750839
893.257812	233.494614
893.214844	215.837784
893.171936	206.994904
893.129028	206.961731
893.086060	259.761383
893.043091	237.709610
893.000183	228.868866
892.957275	277.238983
892.914307	215.595779
892.871338	268.351715
892.828430	237.519196
892.785461	215.492142
892.742493	268.222748
892.699524	241.801422
892.656555	312.093628
892.613525	215.354050
892.570618	290.022247
892.527649	320.730774
892.484619	263.572083
892.441711	245.961197
892.398682	298.619293
892.355652	316.134491
892.312744	276.573334
892.269775	272.139679
892.226746	258.930145
892.183777	267.664520
892.140686	245.685440
892.097717	276.351837
892.054749	289.465057
892.011719	254.337631
891.968750	284.987885
891.925720	241.104950
891.882751	271.747498
891.839722	319.909485
891.796692	293.568512
891.753662	275.997803
891.710632	258.432709
891.667603	258.391296
891.624573	275.865173
891.581482	337.114502
891.538513	275.776764
891.495422	266.979156
891.452454	319.448486
891.409363	284.394836
891.366272	297.473083
891.323242	323.668854
891.280273	293.004578
891.237122	262.350128
891.194092	332.256927
891.151062	314.719269
891.107971	336.520874
891.064880	262.182037
891.021851	297.092041
890.978760	283.939545
890.935730	353.775665
890.892639	318.783783
890.849548	305.634125
890.806458	349.240173
890.763367	314.265808
890.720276	270.574432
890.677185	318.528534
890.634155	287.938568
890.591003	340.236511
890.547913	305.291534
890.504761	279.078979
890.461731	274.674347
890.418579	239.756668
890.375488	274.586365
890.332336	326.836151
890.289246	331.140930
890.246155	296.236511
890.203003	256.987579
890.159912	283.076538
890.116760	291.739868
890.073669	330.875793
890.030457	322.116913
889.987366	374.292145
889.944214	343.771423
889.901062	365.470551
889.857910	287.109436
889.814758	282.713989
889.771606	330.504974
889.728516	321.755920
889.685364	365.177948
889.642212	334.692841
889.598999	286.833618
889.555908	365.002502
889.512695	334.532013
889.469543	334.478424
889.426392	312.708954
889.383240	330.028809
889.340027	316.950592
889.296875	286.512177
889.253723	351.572235
889.210449	295.099792
889.167297	269.018494
889.124146	329.711761
889.080933	299.295654
889.037781	307.921539
888.994507	260.173706
888.951294	290.480774
888.908081	346.787170
888.864868	273.051147
888.821716	264.340515
888.778503	342.287811
888.735291	359.561249
888.692078	324.852722
888.648804	337.792694
888.605652	329.078644
888.562378	337.684509
888.519226	285.687286
888.475952	289.969452
888.432739	289.923004
888.389465	328.815216
888.346252	324.436737
888.303040	307.084229
888.259766	276.764008
888.216492	311.309631
888.173279	302.613678
888.130066	354.433533
888.086731	293.873413
888.043457	349.999054
888.000244	345.622711
887.956970	272.134277
887.913696	332.555298
887.870483	332.502045
887.827209	284.956116
887.783936	323.761902
887.740601	293.497131
887.697327	293.450134
887.654053	349.494904
887.610779	276.099915
887.567505	284.682434
887.524231	301.887543
887.480957	392.390961
887.437622	306.102173
887.394348	314.674377
887.351074	314.623993
887.307739	314.573608
887.264404	280.054932
887.221130	357.551331
887.177734	279.965240
887.134460	310.065674
887.091125	297.098694
887.047852	314.271484
887.004517	344.351929
886.961182	370.119049
886.917908	301.211456
886.874573	361.395874
886.831238	326.924866
886.787842	361.280151
886.744568	326.820160
886.701172	335.366974
886.657837	369.704376
886.614502	339.557800
886.571167	343.800934
886.527832	330.855408
886.484436	305.025604
886.441101	339.340363
886.397766	309.222687
886.354370	330.643555
886.310974	313.417053
886.267639	352.001160
886.224304	326.192719
886.180908	364.762390
886.137451	338.960175
886.094177	326.036072
886.050781	295.959045
886.007385	330.220245
885.963989	343.031036
885.920593	330.114502
885.877197	360.067261
885.833862	458.583649
885.790405	419.943939
885.747009	321.334198
885.703613	424.093262
885.660217	359.779083
885.616821	372.568665
885.573364	419.607849
885.529968	402.416565
885.486511	406.632477
885.443115	393.728394
885.399719	372.270508
885.356323	372.210907
885.312805	376.428894
885.269409	359.260956
885.225952	359.203461
885.182556	401.901398
885.139099	436.035950
885.095642	367.579285
885.052185	405.981873
885.008728	393.098450
884.965332	350.314270
884.921875	401.515472
884.878418	367.285126
884.835022	418.467194
884.791504	392.783875
884.748108	392.720978
884.704590	371.317993
884.661072	366.991211
884.617615	405.332367
884.574219	371.139679
884.530762	392.406708
884.487244	396.608490
884.443726	400.808929
884.400269	439.113922
884.356812	400.680573
884.313232	413.402069
884.269836	417.597076
884.226257	426.051239
884.182739	485.620667
884.139343	404.619110
884.095825	455.655914
884.052307	417.262909
884.008789	417.196106
883.965332	451.180695
883.921753	429.829742
883.878235	429.760925
883.834717	421.183380
883.791199	382.832672
883.747681	425.301544
883.704163	442.242798
883.660645	463.430267
883.617126	374.085632
883.573547	403.777802
883.530029	441.959656
883.486511	395.150665
883.442932	407.832153
883.399414	445.994995
883.355896	373.726440
883.312317	462.837067
883.268738	428.798706
883.225220	403.260956
883.181641	437.149780
883.138062	458.297272
883.094482	466.709534
883.050964	403.002777
883.007385	428.386993
882.963745	453.763092
882.920227	483.371124
882.876648	432.420715
882.833069	440.828979
882.789429	453.472595
882.745911	419.500916
882.702332	444.854004
882.658691	465.962921
882.615112	419.299500
882.571533	465.813751
882.527954	457.271179
882.484314	444.498047
882.440735	448.659515
882.397156	465.515533
882.353516	401.971771
882.309875	461.135895
882.266296	452.602234
882.222656	431.383514
882.179016	427.085876
882.135437	431.245422
882.091797	426.949158
882.048218	401.521545
882.004517	426.812469
881.960876	422.518951
881.917236	426.675842
881.873657	447.726715
881.829956	409.646606
881.786316	422.248474
881.742737	413.737274
881.699036	396.786499
881.655396	413.604828
881.611694	405.099030
881.568054	451.444366
881.524414	565.269714
881.480774	485.041870
881.437073	396.405548
881.393372	413.207703
881.349731	392.062927
881.306091	413.075439
881.262390	396.151794
881.218689	421.370605
881.174988	425.516174
881.131348	425.448059
881.087646	374.839783
881.044006	353.724731
881.000244	374.719788
880.956604	349.401825
880.912903	433.525635
880.869141	370.331543
880.825500	323.988220
880.781799	336.557251
880.738098	340.709686
880.694397	407.945038
880.650574	386.855011
880.606934	403.610168
880.563232	382.527557
880.519470	340.437073
880.475769	407.618622
880.432007	348.731262
880.388306	331.871796
880.344604	378.021271
880.300842	440.954224
880.257080	390.496918
880.213379	327.461121
880.169617	440.742493
880.125854	377.718811
880.082092	394.443146
880.038391	352.424683
879.994629	432.070618
879.950867	440.389832
879.907104	364.836029
879.863342	368.970490
879.819580	347.950531
879.775818	389.809875
879.732056	352.029999
879.688293	297.501526
879.644531	314.211884
879.600708	381.182709
879.556946	355.992798
879.513123	305.686035
879.469299	343.318390
879.425598	343.263428
879.381775	292.982849
879.338013	359.892761
879.294189	338.914490
879.250427	313.759491
879.206604	305.343689
879.162781	301.112671
879.119019	351.241913
879.075134	301.016296
879.031372	334.408997
878.987549	321.817139
878.943726	321.765625
878.899963	371.851379
878.856140	417.743683
878.812317	355.025299
878.768433	329.911865
878.724609	354.911621
878.680786	317.281952
878.636963	384.016693
878.593079	346.394379
878.549255	317.129608
878.505432	325.423035
878.461609	371.256592
878.417725	304.465088
878.373840	262.715485
878.330017	304.367615
878.286194	320.993896
878.242310	312.606354
878.198425	258.379883
878.154602	287.505768
878.110718	241.632843
878.066895	266.586670
878.022949	295.697235
877.979065	258.173157
877.935181	299.765991
877.891296	270.578766
877.847473	241.400864
877.803589	307.944885
877.759705	249.645081
877.715759	303.686218
877.671936	307.797028
877.627991	291.112762
877.584106	249.485275
877.540222	261.917603
877.496277	241.091904
877.452393	311.706848
877.408447	270.102692
877.364563	216.047577
877.320679	203.550705
877.276672	261.666138
877.232788	269.929810
877.188904	244.973984
877.144958	278.146271
877.101013	224.141693
877.057068	240.706253
877.013184	269.713806
876.969238	232.331635
876.925354	232.294449
876.881348	194.930191
876.837402	211.486145
876.793457	194.867798
876.749512	211.418442
876.705566	182.371017
876.661560	240.359680
876.617676	232.034271
876.573730	277.567993
876.529724	219.533569
876.485779	211.215454
876.441833	281.575531
876.397888	244.269073
876.353821	244.229980
876.309875	231.774399
876.265869	240.013626
876.221924	252.387711
876.177917	227.526260
876.133972	190.264236
876.089966	256.402039
876.046021	227.417007
876.002014	231.514801
875.958008	227.344208
875.913940	214.909210
875.869995	252.064682
875.825989	247.892776
875.781982	218.936905
875.737976	239.552979
875.693970	222.996368
875.649902	202.316162
875.605896	185.770813
875.561890	218.761719
875.517883	193.965179
875.473877	259.954254
875.429810	198.028687
875.385864	210.371796
875.341736	239.208054
875.297791	247.416992
875.253723	247.377396
875.209656	288.560760
875.165588	239.054916
875.121521	259.621552
875.077454	271.940918
875.033447	255.418762
874.989380	251.258881
874.945374	288.283691
874.901306	292.355225
874.857239	222.319092
874.813110	209.934418
874.769104	271.636322
874.725037	267.477814
874.680969	320.921997
874.636841	242.709824
874.592773	292.027771
874.548706	222.070068
874.504639	250.816772
874.460571	250.776627
874.416443	275.399078
874.372437	254.806107
874.328308	316.402100
874.284180	242.399155
874.240051	308.085175
874.196045	242.321548
874.151917	258.708710
874.107788	291.513916
874.063660	254.520706
874.019531	233.957382
873.975464	258.543060
873.931335	225.676071
873.887207	221.537399
873.843079	209.196274
873.798950	295.288635
873.754822	241.933884
873.710754	225.495483
873.666565	270.551270
873.622437	307.395386
873.578308	245.876938
873.534180	262.226746
873.489990	278.571320
873.445862	258.046814
873.401672	262.100830
873.357605	294.816223
873.313416	253.828888
873.269287	286.535126
873.225098	290.581940
873.180969	274.167236
873.136780	274.123322
873.092590	278.170197
873.048462	282.215729
873.004272	253.544556
872.960083	257.592743
872.915894	233.022781
872.871765	249.335327
872.827576	245.208603
872.783386	286.030884
872.739197	269.643097
872.695007	212.412064
872.650818	302.230316
872.606567	289.931305
872.562439	244.973145
872.518188	277.591766
872.474060	297.955231
872.429810	326.473999
872.385559	289.699280
872.341370	297.812134
872.297241	293.685486
872.252930	269.168579
872.208740	277.280823
872.164551	281.313416
872.120361	313.879211
872.076050	256.769135
872.031860	293.403473
871.987610	277.058899
871.943359	309.604492
871.899109	281.043274
871.854919	248.418777
871.810608	236.163635
871.766418	227.983551
871.722168	236.088013
871.677917	215.701050
871.633667	268.565857
871.589417	268.522858
871.545166	240.004715
871.500916	219.630173
871.456665	227.728149
871.412354	219.559845
871.368103	219.524689
871.323853	268.264984
871.279602	247.902176
871.235229	235.672531
871.190979	280.324158
871.146790	264.031189
871.102417	235.559341
871.058105	223.339462
871.013916	219.243637
870.969604	267.921539
870.925293	239.467270
870.880981	198.847748
870.836731	206.930847
870.792419	198.784073
870.748047	235.257751
870.703796	239.275604
870.659485	206.798325
870.615173	206.765213
870.570862	186.464249
870.526550	263.439911
870.482178	206.665909
870.437866	194.477936
870.393555	182.293869
870.349243	194.415665
870.304932	206.533554
870.260559	190.304367
870.216248	194.322281
870.171875	137.622910
870.127563	198.307129
870.083252	186.136063
870.038879	173.968887
869.994507	153.715332
869.950195	153.690720
869.905823	105.139969
869.861511	169.814285
869.817078	173.829651
869.772766	181.885605
869.728394	161.650208
869.684021	169.705536
869.639648	141.398636
869.595276	141.375992
869.550903	157.508011
869.506531	153.444778
869.462158	137.270706
869.417786	129.175262
869.373413	157.407150
869.328979	108.956726
869.284607	104.904488
869.240234	149.263245
869.195862	121.004875
869.151428	129.051193
869.107056	112.901711
869.062622	116.915184
869.018250	76.587334
868.973877	116.877739
868.929443	132.977509
868.885010	80.579521
868.840637	104.736603
868.796143	92.636772
868.751770	124.838257
868.707336	84.554306
868.662903	88.566521
868.618469	116.728073
868.574036	100.611534
868.529663	112.666870
868.485229	116.671997
868.440735	120.675842
868.396301	100.547096
868.351868	116.615952
868.307434	120.617867
868.263000	64.319221
868.218506	64.308922
868.174072	96.447937
868.129578	84.378426
868.085144	56.243275
868.040710	100.418335
867.996277	84.337891
867.951721	104.401611
867.907288	44.162838
867.862793	76.269051
867.818359	92.310905
867.773865	100.321869
867.729370	88.269104
867.684937	88.254959
867.640442	44.120415
867.595947	64.164864
867.551514	72.173912
867.506958	92.207451
867.462463	72.150795
867.417969	76.146973
867.373535	72.127678
867.328979	64.103226
867.284485	64.092957
867.239929	68.087860
867.195435	80.090530
867.150940	64.062164
867.106445	60.048656
867.061890	72.046844
867.017395	68.033340
866.972839	88.029045
866.928345	84.014267
866.883789	96.000923
866.839294	75.988556
866.794739	83.973892
866.750183	47.977398
866.705688	75.952042
866.661133	75.939873
866.616638	95.908684
866.572021	55.937771
866.527527	75.903381
866.482910	51.925575
866.438416	71.885429
866.393860	75.866913
866.349304	75.854759
866.304749	91.809471
866.260193	75.830460
866.215637	75.818306
866.171021	75.806160
866.126465	63.826542
866.081909	55.839275
866.037292	55.830330
865.992676	47.846901
865.948181	59.799046
865.903564	75.733322
865.859009	47.823910
865.814392	71.724373
865.769836	83.665024
865.725159	95.601852
865.680603	87.620995
865.635986	107.517624
865.591431	79.629929
865.546753	63.693733
865.502197	99.505516
865.457581	71.632492
865.412964	91.515739
865.368347	67.631233
865.323792	95.464088
865.279114	91.471756
865.234497	83.504311
865.189880	67.587898
865.145264	83.477554
865.100647	75.515213
865.055969	83.450806
865.011353	67.544586
864.966675	79.451492
864.922058	79.438759
864.877441	95.311241
864.832825	79.413307
864.788147	95.280693
864.743469	95.265427
864.698853	63.500111
864.654175	75.394295
864.609497	111.089584
864.564880	107.104935
864.520203	71.391846
864.475586	115.001762
864.430908	99.123566
864.386169	103.071991
864.341492	83.237114
864.296875	103.038956
864.252136	126.796860
864.207520	99.044174
864.162781	126.756226
864.118103	122.775414
864.073425	95.036705
864.028687	98.980698
863.984009	98.964836
863.939331	110.822853
863.894653	94.975800
863.849976	87.047195
863.805237	94.945358
863.760559	90.974716
863.715820	83.050560
863.671143	106.762184
863.626404	79.070427
863.581665	90.916412
863.536987	79.045082
863.492249	75.080795
863.447571	142.235550
863.402832	79.007088
863.358093	86.893867
863.313354	78.981758
863.268616	102.659836
863.223877	82.904266
863.179138	86.838173
863.134338	110.503593
863.089600	98.648109
863.044861	118.358757
863.000183	67.059212
862.955444	106.488739
862.910645	74.924507
862.865906	90.683556
862.821106	67.016235
862.776367	67.005493
862.731628	59.113014
862.686890	82.744957
862.642090	82.731697
862.597290	55.145622
862.552490	90.581856
862.507751	98.442757
862.463013	74.804504
862.418213	66.919617
862.373352	78.716339
862.328613	59.027794
862.283813	62.952888
862.239014	98.348122
862.194275	66.865997
862.149475	66.855286
862.104675	51.116432
862.059814	82.559464
862.015076	23.584637
861.970215	62.882282
861.925415	55.013176
861.880615	66.791008
861.835754	39.282528
861.790955	47.131477
861.746155	70.685883
861.701294	58.895458
861.656494	70.663223
861.611694	74.576996
861.566833	62.791615
861.522034	58.857700
861.477173	58.848267
861.432373	58.838833
861.387512	62.751358
861.342651	90.190613
861.297852	70.572647
861.252991	50.960960
861.208130	58.791679
861.163269	54.863438
861.118408	50.936455
861.073608	70.516090
861.028687	27.418528
860.983826	43.079350
860.938965	66.566498
860.894165	39.150486
860.849243	43.058632
860.804382	58.706902
860.759460	74.350151
860.714600	46.950462
860.669739	50.854843
860.624817	54.757973
860.580017	35.195911
860.535095	50.830387
860.490173	50.822235
860.445251	42.996536
860.400391	42.989639
860.355469	62.520359
860.310608	35.162064
860.265686	39.062695
860.220764	19.528215
860.175903	58.575253
860.130920	46.852688
860.086060	50.748940
860.041138	50.740799
859.996216	23.415075
859.951294	54.626415
859.906372	35.111351
859.861450	23.403812
859.816467	46.800121
859.771606	46.792614
859.726685	42.886353
859.681702	31.185072
859.636780	66.257652
859.591858	23.381302
859.546936	50.651363
859.501953	46.747608
859.457031	38.950092
859.412109	35.049461
859.367065	35.043839
859.322144	38.931355
859.277161	58.387669
859.232239	31.135096
859.187256	15.565051
859.142273	38.906387
859.097290	27.230103
859.052429	42.783298
859.007385	58.331501
858.962402	50.545860
858.917419	15.550078
858.872498	23.321375
858.827454	50.521542
858.782532	42.742142
858.737488	38.850258
858.692505	31.075222
858.647522	54.372917
858.602478	34.948410
858.557495	46.590408
858.512512	46.582935
858.467529	46.575462
858.422485	38.806660
858.377502	50.440563
858.332458	27.155947
858.287537	46.545586
858.242493	46.538116
858.197449	46.530651
858.152405	27.138527
858.107422	38.763103
858.062378	38.756886
858.017334	15.500267
857.972290	30.995562
857.927307	38.738235
857.882263	58.098034
857.837219	34.853230
857.792236	30.975677
857.747131	73.555428
857.702087	34.836456
857.657043	11.610290
857.611938	46.433704
857.566956	27.081984
857.521912	34.814106
857.476807	34.808521
857.431763	38.669930
857.386719	38.663723
857.341614	34.791771
857.296570	27.055923
857.251465	38.645119
857.206421	34.775024
857.161316	38.632717
857.116272	38.626518
857.071167	27.034225
857.026123	42.475536
856.981018	34.747135
856.935974	15.440694
856.890869	15.438216
856.845764	15.435739
856.800659	38.583157
856.755554	42.434662
856.710510	38.570774
856.665344	42.421043
856.620239	30.846718
856.575134	3.855221
856.530029	11.563807
856.484924	53.955772
856.439758	15.413461
856.394653	38.527470
856.349548	73.190445
856.304443	53.921146
856.259338	19.254461
856.214233	15.401097
856.169006	26.947596
856.123962	34.641346
856.078796	38.484211
856.033630	34.630230
855.988525	38.471859
855.943420	30.772547
855.898254	23.075706
855.853027	19.226669
855.807922	19.223583
855.762756	46.129196
855.717590	53.808758
855.672485	49.957253
855.627258	34.580242
855.582153	30.733057
855.536987	46.092186
855.491821	34.563591
855.446655	34.558044
855.401489	38.391663
855.356262	34.546951
855.311096	46.055210
855.265930	30.698544
855.220764	30.693617
855.175537	23.016518
855.130371	30.683764
855.085205	19.174274
855.039978	46.010872
854.994812	49.837109
854.949646	34.497074
854.904358	34.491539
854.859192	49.813110
854.814026	30.649302
854.768799	49.797119
854.723511	22.979597
854.678406	34.463860
854.633179	30.629625
854.587952	26.796619
854.542725	19.137369
854.497498	22.961157
854.452209	42.088696
854.407043	38.256310
854.361755	26.775116
854.316589	34.419624
854.271301	45.885464
854.226074	42.054920
854.180908	34.403046
854.135681	42.041416
854.090332	26.749334
854.045105	7.641439
853.999878	30.560850
853.954651	26.736450
853.909363	34.369919
853.864136	34.364399
853.818848	34.358883
853.773621	41.987446
853.728333	49.613560
853.683044	22.894888
853.637817	34.336819
853.592529	34.331306
853.547241	30.511814
853.501953	64.827194
853.456726	26.689264
853.411438	26.684978
853.366089	22.869165
853.320801	22.865494
853.275513	22.861822
853.230225	15.238767
853.184937	34.281719
853.139648	45.701618
853.094421	34.270710
853.049072	26.650715
853.003784	45.679604
852.958435	30.448177
852.913147	26.637877
852.867859	15.219199
852.822571	34.237698
852.777222	41.839355
852.731873	19.014833
852.686584	22.814137
852.641296	19.008726
852.595886	30.409079
852.550598	45.606289
852.505249	37.999138
852.459900	22.795820
852.414551	37.986931
852.369263	22.788498
852.323914	18.987364
852.278564	37.968628
852.233215	53.147541
852.187927	37.956432
852.142517	56.925503
852.097168	41.738663
852.051819	15.175258
852.006470	30.345640
851.961121	30.340765
851.915771	45.503838
851.870361	37.913773
851.825012	18.953840
851.779602	22.740955
851.734253	41.685055
851.688843	26.522591
851.643555	26.518330
851.598145	41.664967
851.552734	15.148462
851.507324	26.505550
851.461975	37.858990
851.416565	26.497034
851.371216	34.062141
851.325806	45.408894
851.280396	37.834663
851.235046	30.262869
851.189636	26.475756
851.144165	18.908215
851.098755	30.248283
851.053345	34.023849
851.007935	22.678923
850.962524	22.675278
850.917175	18.893028
850.871765	22.667992
850.826294	33.996525
850.780945	11.330354
850.735474	26.433243
850.690002	45.306850
850.644592	33.974678
850.599182	37.743576
850.553711	15.095004
850.508301	26.412012
850.462891	41.497921
850.417419	15.087728
850.372009	26.399281
850.326538	30.165756
850.281067	18.850569
850.235657	30.156061
850.190186	30.151215
850.144714	26.378073
850.099182	30.141525
850.053772	30.136681
850.008301	18.832397
849.962830	22.595245
849.917358	22.591614
849.871887	52.705292
849.826355	41.404644
849.780945	37.634537
849.735474	45.154186
849.690002	15.048976
849.644470	26.331474
849.598999	30.088276
849.553528	37.604298
849.507996	18.799128
849.462524	11.277663
849.417053	26.310318
849.371521	30.064100
849.325989	33.816677
849.280518	33.811241
849.234985	45.074406
849.189514	22.533581
849.143982	22.529959
849.098450	30.035114
849.052979	45.045429
849.007446	37.531822
848.961914	33.773209
848.916443	11.255927
848.870911	56.270584
848.825378	7.501538
848.779846	30.001329
848.734253	18.747816
848.688721	29.991682
848.643250	14.993430
848.597656	37.477551
848.552124	29.977219
848.506592	22.479300
848.461060	14.983789
848.415466	11.236035
848.369934	48.681656
848.324341	29.953125
848.278809	29.948309
848.233276	11.228810
848.187683	14.969339
848.142151	26.192131
848.096558	37.411312
848.050964	48.626884
848.005371	7.479856
847.959839	37.393269
847.914246	41.125980
847.868652	29.904993
847.823120	33.637707
847.777466	33.632298
847.731934	37.363209
847.686340	37.357201
847.640747	29.880953
847.595093	37.345184
847.549500	37.339180
847.503906	48.533127
847.458313	22.396301
847.412720	41.053280
847.367188	33.583645
847.321533	18.654581
847.275879	33.572842
847.230286	29.837727
847.184692	18.645580
847.139038	26.099613
847.093445	33.551247
847.047791	18.636583
847.002197	33.540455
846.956543	33.535061
846.910950	26.078629
846.865356	18.624596
846.819641	40.967518
846.773987	22.342323
846.728333	33.508095
846.682739	37.225227
846.637085	11.165771
846.591431	11.163975
846.545776	33.486538
846.500183	26.040894
846.454468	37.195293
846.408813	26.032515
846.363159	52.056656
846.317505	29.741873
846.271851	48.322769
846.226135	40.881916
846.180481	7.431880
846.134827	26.007395
846.089172	3.714744
846.043457	37.141464
845.997803	33.421940
845.952148	33.416561
845.906433	51.972954
845.860718	40.829323
845.815002	29.689274
845.769348	22.263372
845.723633	29.679720
845.677979	29.674944
845.632324	29.670168
845.586548	37.081741
845.540894	14.830310
845.495178	25.948866
845.449463	18.531921
845.403748	11.117363
845.358032	29.641531
845.312317	37.045952
845.266602	33.335991
845.220886	25.923819
845.175110	25.919645
845.129456	18.511053
845.083679	29.612919
845.037964	40.711208
844.992249	33.303810
844.946533	25.898794
844.900818	29.593857
844.854980	18.493183
844.809265	18.490206
844.763550	29.579569
844.717773	44.362209
844.672058	62.836349
844.626282	55.434914
844.580505	36.950657
844.534729	22.166826
844.489014	33.244888
844.443237	33.239536
844.397522	14.770748
844.351746	25.844648
844.305969	25.840488
844.260193	25.836327
844.214417	18.451548
844.168640	36.897156
844.122803	25.823851
844.077087	40.573803
844.031250	29.503469
843.985474	36.873398
843.939697	22.120478
843.893982	29.489222
843.848145	22.113354
843.802368	22.109795
843.756531	33.159351
843.710754	18.418896
843.664917	14.732743
843.619141	29.460743
843.573303	33.137997
843.527527	36.814068
843.481689	18.404070
843.435913	33.121990
843.390137	36.796288
843.344299	40.469398
843.298462	58.855099
843.252625	33.100662
843.206787	29.418072
843.160950	29.413334
843.115112	40.436821
843.069336	44.105789
843.023438	25.724234
842.977661	7.348598
842.931763	18.368534
842.885986	40.404266
842.840088	36.725235
842.794250	22.031591
842.748413	22.028044
842.702576	47.719738
842.656677	36.701580
842.610840	29.356535
842.565002	33.020782
842.519104	29.347076
842.473206	25.674557
842.427429	18.336014
842.381531	54.999184
842.335632	36.660213
842.289795	32.988876
842.243835	18.324202
842.197998	18.321251
842.152161	36.636597
842.106262	47.619904
842.060303	58.599670
842.014465	25.633224
841.968567	40.274292
841.922668	29.285675
841.876770	43.921436
841.830933	18.297649
841.784973	36.589401
841.739075	29.266806
841.693237	65.839699
841.647278	25.600203
841.601318	47.535572
841.555420	18.279966
841.509521	25.587830
841.463562	36.548153
841.417664	21.925358
841.371765	21.921824
841.325867	51.142681
841.279907	58.439358
841.234009	32.866840
841.188049	29.210262
841.142090	29.205555
841.096130	7.300212
841.050232	32.845661
841.004272	29.191437
840.958374	36.483414
840.912415	18.238768
840.866455	25.530159
840.820496	25.526045
840.774536	29.167921
840.728638	36.454025
840.682678	21.868889
840.636719	32.798046
840.590759	40.080040
840.544800	32.787472
840.498779	29.139723
840.452820	40.060661
840.406799	36.412910
840.360901	25.484928
840.314880	47.321526
840.268921	18.197653
840.222900	36.389439
840.176941	40.021927
840.130981	29.102165
840.084961	32.734657
840.039001	32.729378
839.992981	29.088091
839.947021	25.447977
839.901001	39.983231
839.854980	32.708279
839.808960	32.703003
839.763000	39.963894
839.716980	10.897487
839.670959	7.263819
839.625000	29.050592
839.578918	36.307384
839.532959	36.301533
839.486877	29.036543
839.440857	43.547791
839.394836	32.655575
839.348816	14.511249
839.302795	32.645046
839.256775	7.253284
839.210754	14.504230
839.164673	21.752836
839.118652	7.249776
839.072571	25.370123
839.026611	43.484627
838.980530	28.985075
838.934509	18.112751
838.888428	36.219658
838.842407	47.077961
838.796265	32.587177
838.750244	43.442562
838.704224	32.576668
838.658142	61.523777
838.612061	25.329235
838.566040	10.853635
838.519958	21.703768
838.473877	36.167114
838.427734	14.464512
838.381714	36.155445
838.335632	21.689768
838.289551	39.758160
838.243469	36.137951
838.197388	46.971756
838.151245	25.288404
838.105225	28.896370
838.059143	46.949028
838.013000	39.719692
837.966919	28.882387
837.920837	43.316589
837.874695	25.263935
837.828613	28.868410
837.782471	61.335472
837.736450	36.073868
837.690308	36.068047
837.644165	36.062229
837.598083	21.633844
837.551880	46.865768
837.505798	10.813432
837.459717	43.246750
837.413513	36.033142
837.367432	36.027325
837.321289	21.612907
837.275146	43.218838
837.229004	21.605932
837.182861	25.202852
837.136780	39.598091
837.090637	17.996227
837.044434	32.387981
836.998352	39.578922
836.952148	32.377529
836.906006	14.387690
836.859863	46.752445
836.813721	43.149139
836.767578	32.356628
836.721375	25.162205
836.675171	35.940205
836.629028	35.934402
836.582825	43.114326
836.536743	35.922806
836.490540	25.141903
836.444336	25.137846
836.398132	43.086491
836.351990	25.129730
836.305786	46.661964
836.259644	57.420837
836.213440	39.470451
836.167236	43.051723
836.121094	17.935322
836.074890	50.210796
836.028625	32.273155
835.982422	32.267944
835.936218	35.847485
835.890076	21.505018
835.843872	28.668728
835.797668	46.579159
835.751404	25.077036
835.705261	28.654842
835.658997	35.812771
835.612793	28.645590
835.566528	42.961445
835.520325	32.215881
835.474121	42.947571
835.427856	28.627090
835.381653	32.200275
835.335388	35.772305
835.289185	28.613222
835.242920	32.184677
835.196716	39.330475
835.150513	50.048882
835.104248	39.317772
835.057922	60.754013
835.011719	25.012318
834.965454	21.435667
834.919250	35.720341
834.872986	14.285829
834.826660	35.708801
834.780457	32.132732
834.734192	32.127541
834.687927	46.398952
834.641663	10.705721
834.595398	35.679970
834.549072	57.078732
834.502869	28.534756
834.456543	35.662682
834.410278	17.828461
834.364014	39.216274
834.317688	21.387239
834.271423	32.075676
834.225159	35.633884
834.178833	46.316563
834.132568	24.935658
834.086243	32.054951
834.039978	35.610859
833.993652	32.044594
833.947388	53.399029
833.901062	35.593597
833.854736	28.470278
833.808472	39.140305
833.762146	24.903442
833.715820	39.127659
833.669495	39.121334
833.623169	28.447281
833.576843	31.998020
833.530518	17.773806
833.484192	39.096050
833.437866	17.768061
833.391541	21.318226
833.345215	39.077099
833.298889	28.415115
833.252563	10.653946
833.206177	28.405930
833.159851	39.051842
833.113525	31.946342
833.067200	31.941177
833.020813	53.226692
832.974487	14.191490
832.928101	31.925692
832.881775	31.920530
832.835388	21.276913
832.789062	17.727896
832.742676	38.995064
832.696289	28.355461
832.649963	17.719299
832.603577	28.346294
832.557190	31.884426
832.510803	46.047836
832.464417	35.415684
832.418091	24.786972
832.371643	24.782963
832.325317	7.079702
832.278870	31.853508
832.232483	38.925770
832.186096	42.457611
832.139709	35.375622
832.093323	24.758930
832.046936	28.291344
832.000549	28.286770
831.954102	14.141097
831.907776	42.416431
831.861328	56.546097
831.814880	28.268476
831.768494	42.395855
831.722046	45.921417
831.675659	38.850300
831.629272	35.312740
831.582825	42.368435
831.536438	35.301319
831.489929	45.884293
831.443542	21.173941
831.397156	63.511547
831.350708	28.222788
831.304260	35.272778
831.257812	42.320488
831.211365	24.682959
831.164917	38.781231
831.118530	35.249962
831.072021	24.670982
831.025574	21.143135
830.979065	7.046571
830.932678	35.227158
830.886169	28.177166
830.839722	45.780487
830.793274	35.210064
830.746826	35.204365
830.700378	21.119202
830.653931	35.192974
830.607422	31.668552
830.560974	10.554476
830.514465	24.623127
830.468018	42.204243
830.421509	28.131609
830.375061	35.158821
830.328552	42.183758
830.282043	21.088467
830.235535	31.627581
830.189087	14.054427
830.142578	24.591269
830.096130	28.099758
830.049622	35.119011
830.003113	17.556665
829.956543	42.129177
829.910095	38.612160
829.863525	24.567398
829.817078	21.054361
829.770569	45.610401
829.723999	35.079243
829.677490	17.536783
829.630981	31.561100
829.584473	10.518663
829.537964	35.056538
829.491455	49.071205
829.444885	7.009037
829.398376	28.031610
829.351868	28.027073
829.305298	24.519720
829.258789	42.027000
829.212219	35.016830
829.165710	35.011162
829.119141	31.504942
829.072571	52.499737
829.026001	24.495911
828.979492	45.485039
828.932922	45.477673
828.886353	31.479446
828.839783	31.474348
828.793274	38.462418
828.746704	20.976105
828.700134	38.449963
828.653564	41.938622
828.606995	45.426151
828.560425	24.456274
828.513794	31.438688
828.467285	31.433598
828.420715	45.396732
828.374146	34.914906
828.327515	20.945551
828.280945	17.451799
828.234375	41.877533
828.187744	34.892292
828.141113	38.375305
828.094604	20.928595
828.047974	34.875340
828.001404	41.843632
827.954773	45.323257
827.908142	27.886717
827.861572	45.308575
827.814941	34.847103
827.768311	24.389021
827.721680	27.868650
827.675110	41.796204
827.628479	38.306980
827.581909	34.818886
827.535278	76.589142
827.488586	27.846085
827.441956	27.841572
827.395386	45.235226
827.348694	24.353481
827.302063	27.828041
827.255493	27.823532
827.208862	34.773781
827.162170	34.768147
827.115540	41.715012
827.068848	45.183941
827.022217	27.800997
826.975647	27.796492
826.928955	52.109974
826.882263	24.314047
826.835571	31.255852
826.789001	48.612335
826.742249	34.717468
826.695618	20.827105
826.648987	52.059322
826.602295	38.170650
826.555603	45.103455
826.508972	45.096146
826.462280	27.746975
826.415588	34.678097
826.368896	27.737982
826.322266	45.066914
826.275574	34.661236
826.228882	34.655617
826.182190	27.719999
826.135498	31.179945
826.088806	38.102642
826.042053	51.949726
825.995361	34.627537
825.948669	17.310961
825.901978	20.769785
825.855286	44.993904
825.808594	24.223558
825.761841	24.219631
825.715149	41.512634
825.668396	10.376476
825.621765	34.582645
825.575012	34.577038
825.528320	38.028572
825.481567	48.392155
825.434814	31.104197
825.388123	48.376461
825.341370	41.458813
825.294617	34.543407
825.247864	13.815123
825.201172	34.532204
825.154419	13.810641
825.107727	17.260502
825.060974	37.966946
825.014160	37.960789
824.967468	37.954632
824.920654	31.048752
824.873962	37.942318
824.827148	44.833649
824.780396	34.481827
824.733643	31.028610
824.686890	44.811832
824.640137	31.018545
824.593384	24.121620
824.546631	27.563095
824.499817	20.668966
824.453003	13.777076
824.406311	34.437103
824.359497	41.317818
824.312744	30.983335
824.265930	27.536274
824.219177	30.973282
824.172302	30.968256
824.125549	48.165028
824.078735	55.036812
824.031982	30.953184
823.985168	48.141582
823.938354	17.190632
823.891541	51.563530
823.844788	41.244129
823.797974	44.673889
823.751221	24.051266
823.704346	27.482700
823.657532	61.826042
823.610718	20.605335
823.563904	20.601992
823.517090	48.063511
823.470276	34.325508
823.423462	41.183922
823.376648	30.882929
823.329773	44.601433
823.282959	37.733547
823.236084	20.578594
823.189331	30.862881
823.142456	51.429783
823.095642	54.849529
823.048767	27.420313
823.001953	65.112671
822.955017	37.690689
822.908203	41.110439
822.861328	27.402510
822.814514	58.220882
822.767639	30.817814
822.720764	30.812811
822.673950	47.923256
822.627075	34.225338
822.580200	23.953848
822.533386	61.585606
822.486450	37.629536
822.439636	51.304672
822.392700	30.777803
822.345825	27.353605
822.298950	37.605099
822.252075	23.926632
822.205200	30.757816
822.158325	17.084900
822.111450	37.580677
822.064514	47.822182
822.017639	34.153152
821.970764	37.562366
821.923828	44.384678
821.876953	44.377468
821.830078	37.544067
821.783142	37.537968
821.736267	20.471930
821.689331	30.702906
821.642456	40.930557
821.595520	23.872278
821.548584	44.327030
821.501648	20.455305
821.454712	34.086636
821.407837	47.713539
821.360901	51.113342
821.314026	37.477028
821.267029	30.658041
821.220154	30.653059
821.173157	54.485474
821.126221	34.047886
821.079285	30.638119
821.032349	40.844189
820.985413	54.450066
820.938477	37.428337
820.891541	51.030350
820.844604	51.022057
820.797668	37.410091
820.750671	27.202919
820.703735	23.798685
820.656738	54.388153
820.609802	13.594829
820.562866	23.787083
820.515930	10.192807
820.468933	30.573452
820.421997	16.982491
820.375000	50.939190
820.328003	30.558544
820.281006	27.158735
820.234009	44.125771
820.187073	37.331120
820.140076	27.145493
820.093140	78.030602
820.046082	33.920834
819.999146	50.872978
819.952148	74.601570
819.905090	40.685150
819.858093	27.119024
819.811096	57.618553
819.764099	37.276531
819.717163	23.717573
819.670105	67.753471
819.623108	40.645473
819.576111	30.479149
819.529114	54.176342
819.482117	44.011120
819.435059	20.309521
819.388062	40.612434
819.341064	40.605831
819.294006	23.682882
819.247009	43.975342
819.199951	23.675180
819.152954	33.816185
819.105896	30.429615
819.058838	30.424665
819.011841	33.799686
818.964783	47.311863
818.917725	50.683037
818.870667	43.918152
818.823669	37.155468
818.776611	40.526646
818.729553	50.650066
818.682434	40.513458
818.635376	33.755726
818.588379	50.625347
818.541321	37.119217
818.494263	37.113174
818.447144	47.227268
818.400146	37.101101
818.353027	30.350506
818.306030	43.832489
818.258911	33.711811
818.211853	33.706326
818.164795	30.330757
818.117676	53.912571
818.070618	47.165821
818.023499	33.684391
817.976440	26.943127
817.929321	37.040771
817.882202	30.301153
817.835144	43.761208
817.788025	37.022690
817.740967	63.937870
817.693848	40.375240
817.646729	50.460835
817.599670	53.816132
817.552551	47.081448
817.505432	30.261719
817.458374	36.980526
817.411255	33.613186
817.364075	40.329258
817.316956	47.043140
817.269897	33.596771
817.222717	30.232172
817.175598	50.378750
817.128479	23.506256
817.081360	36.932388
817.034180	43.640263
816.987061	50.345951
816.939941	40.270203
816.892822	30.197733
816.845642	43.611847
816.798523	23.479477
816.751404	46.951309
816.704224	46.943661
816.657104	60.346310
816.609985	63.688507
816.562744	53.623692
816.515625	36.860283
816.468506	56.956615
816.421265	56.947338
816.374146	50.239468
816.326965	43.533783
816.279785	33.482071
816.232605	53.562584
816.185486	40.165394
816.138306	56.891708
816.091125	56.882439
816.043945	30.109327
815.996765	40.139229
815.949585	46.821472
815.902405	46.813847
815.855164	40.119617
815.807983	50.141350
815.760803	50.133179
815.713623	33.416676
815.666443	43.434601
815.619263	50.108681
815.572083	33.400345
815.524841	56.771332
815.477661	33.389458
815.430420	53.414429
815.383240	53.405724
815.335999	56.734337
815.288757	66.735397
815.241577	46.707169
815.194336	50.035236
815.147156	50.027084
815.099915	43.349739
815.052673	46.676727
815.005432	50.002625
814.958252	63.326336
814.911011	66.648438
814.863770	59.973816
814.816528	56.632702
814.769287	33.307926
814.722046	59.944492
814.674866	26.637653
814.627563	43.279129
814.580322	46.600697
814.533081	73.217728
814.485840	69.878250
814.438599	26.615946
814.391296	53.223213
814.344055	73.169991
814.296753	39.904396
814.249573	46.547535
814.202209	33.242821
814.154968	33.237400
814.107727	43.201572
814.060486	46.517185
814.013184	59.798054
813.965881	29.894152
813.918640	46.494431
813.871338	53.127827
813.824097	49.799213
813.776794	69.707527
813.729431	53.101837
813.682190	56.411499
813.634949	63.037861
813.587585	56.393097
813.540283	63.017300
813.492981	46.426224
813.445740	46.418652
813.398376	43.096001
813.351074	46.403507
813.303833	62.965916
813.256531	56.328735
813.209167	29.816229
813.161865	46.373234
813.114502	72.860336
813.067261	49.669399
813.019958	92.701080
812.972595	59.583828
812.925232	69.503128
812.877930	62.873520
812.830566	66.171852
812.783325	59.544949
812.735962	59.535233
812.688599	59.525517
812.641296	59.515804
812.593933	39.670727
812.546631	62.801731
812.499207	39.657780
812.451904	49.564133
812.404541	49.556046
812.357239	56.154350
812.309875	85.869102
812.262512	52.833900
812.215149	36.317379
812.167786	56.117695
812.120361	69.310539
812.073059	56.099377
812.025635	52.790794
811.978333	75.874374
811.930969	59.370255
811.883545	56.062752
811.836182	69.242683
811.788818	85.715034
811.741394	32.961941
811.694031	65.913116
811.646667	62.607235
811.599304	46.124115
811.551880	69.174873
811.504456	55.989563
811.457092	62.566353
811.409668	49.386421
811.362305	62.545921
811.314941	52.661648
811.267517	78.979568
811.220154	62.515282
811.172729	65.794815
811.125305	59.205658
811.077881	42.752659
811.030457	52.610062
810.983032	88.764977
810.935608	72.315208
810.888184	69.016876
810.840820	55.861679
810.793396	36.139889
810.745911	62.413242
810.698486	68.971786
810.651062	59.109020
810.603638	55.816063
810.556213	75.503517
810.508728	62.362278
810.461365	45.943645
810.413879	82.028816
810.366394	49.209248
810.318970	45.921127
810.271545	59.031803
810.224060	68.859184
810.176636	52.455566
810.129211	36.057308
810.081726	49.161022
810.034302	42.599255
809.986816	62.250278
809.939331	29.482155
809.891907	55.679413
809.844421	49.120865
809.796936	55.661213
809.749451	39.283844
809.702026	58.916138
809.654480	49.088757
809.607056	39.264584
809.559570	32.715137
809.512085	49.064686
809.464600	45.786221
809.417114	49.048645
809.369568	49.040627
809.322144	42.494930
809.274597	45.756287
809.227173	45.748806
809.179626	42.474091
809.132141	58.800663
809.084656	68.589554
809.037109	52.250164
808.989563	42.446316
808.942078	35.910240
808.894592	35.904369
808.847107	52.215996
808.799561	48.944492
808.752014	42.411621
808.704529	42.404686
808.656982	55.443211
808.609497	55.434143
808.561951	58.685375
808.514404	68.455078
808.466858	48.888485
808.419373	58.656586
808.371826	55.388824
808.324280	39.091599
808.276733	52.113605
808.229187	42.335377
808.181641	39.072418
808.134094	61.854538
808.086548	32.549694
808.039001	42.307678
807.991455	52.062473
807.943909	35.787094
807.896301	32.528397
807.848755	52.036922
807.801208	35.769531
807.753662	61.773624
807.706055	65.014229
807.658508	42.252331
807.610901	48.744713
807.563416	42.238503
807.515747	38.983009
807.468201	45.472733
807.420654	55.207851
807.373108	58.445805
807.325439	42.203953
807.277832	61.672604
807.230347	42.190136
807.182739	42.183231
807.135132	45.420658
807.087463	48.657024
807.039917	64.865417
806.992310	45.398357
806.944702	42.148716
806.897156	64.833565
806.849548	48.617214
806.801880	42.128017
806.754272	38.881035
806.706665	68.030670
806.659058	42.107330
806.611450	58.292912
806.563843	80.949120
806.516235	71.223564
806.468567	61.501186
806.420959	38.836494
806.373291	51.773510
806.325684	35.588459
806.278076	58.226124
806.230469	54.982334
806.182800	58.207054
806.135132	45.264740
806.087524	77.583984
806.039856	54.946323
805.992249	54.937321
805.944580	45.235088
805.896973	64.610970
805.849243	77.520462
805.801636	58.130825
805.753967	35.518574
805.706299	67.797081
805.658691	48.418552
805.611023	54.865368
805.563354	58.083225
805.515625	51.621075
805.468018	54.838406
805.420349	48.378899
805.372681	61.269897
805.324951	45.138844
805.277283	54.802471
805.229614	54.793491
805.181885	70.897606
805.134216	70.885986
805.086548	57.988121
805.038879	61.199650
804.991211	74.071648
804.943481	70.839531
804.895752	67.608467
804.848083	54.721695
804.800354	70.804703
804.752686	67.575226
804.705017	57.912128
804.657288	51.469009
804.609619	64.325714
804.561890	64.315170
804.514160	61.089397
804.466431	67.508789
804.418701	67.497726
804.371033	35.350155
804.323303	48.196854
804.275513	57.826740
804.227844	51.393120
804.180115	61.019321
804.132385	96.330498
804.084595	48.157352
804.036865	57.779346
803.989197	67.398186
803.941467	60.969307
803.893738	64.167694
803.845947	54.533596
803.798218	64.146652
803.750488	64.136131
803.702759	60.919331
803.654968	54.497829
803.607178	67.309807
803.559448	54.479950
803.511719	64.083549
803.463928	80.091293
803.416199	60.859398
803.368408	64.052017
803.320679	54.435284
803.272888	60.829453
803.225159	60.819473
803.177307	67.210495
803.129578	73.599419
803.081787	83.185692
803.033997	76.774193
802.986206	60.769596
802.938416	51.166000
802.890686	54.354954
802.842896	63.936512
802.795105	73.514923
802.747253	54.328197
802.699524	60.709785
802.651672	67.089279
802.603882	57.495659
802.556091	95.810371
802.508301	51.090477
802.460510	86.201027
802.412720	47.881599
802.364929	76.597984
802.317078	41.483765
802.269226	63.810699
802.221436	79.750282
802.173645	86.116165
802.125793	76.535133
802.078003	54.203487
802.030151	89.261681
801.982361	73.310051
801.934509	76.484886
801.886719	70.099632
801.838867	79.645599
801.791016	95.559021
801.743164	82.804222
801.695312	82.790627
801.647522	89.144493
801.599609	82.763435
801.551819	98.663277
801.503967	95.464912
801.456055	79.541023
801.408203	98.614677
801.360352	117.682053
801.312500	89.042061
801.264709	108.104744
801.216797	98.549904
801.168945	111.247742
801.121094	108.051483
801.073181	127.098511
801.025391	104.839043
800.977478	123.880333
800.929565	120.684090
800.881714	101.612007
800.833862	92.070755
800.785950	107.927284
800.738037	101.561935
800.690247	104.718536
800.642334	104.701332
800.594421	114.200867
800.546570	142.727615
800.498596	139.532959
800.450745	152.192764
800.402832	126.806465
800.354980	85.580292
800.307068	126.764786
800.259155	133.081146
800.211243	126.723122
800.163330	126.702293
800.115417	139.349609
800.067505	123.494133
800.019653	158.299789
799.971680	151.942810
799.923767	110.773422
799.875854	136.070694
799.827942	104.409172
799.779968	123.372375
799.732117	117.026344
799.684143	117.007103
799.636230	113.826035
799.588257	126.452576
799.540344	110.627815
799.492371	158.013748
799.444458	113.751190
799.396545	91.617836
799.348572	135.824799
799.300598	101.062294
799.252686	132.622452
799.204712	135.757797
799.156738	138.892105
799.108826	113.620308
799.060852	132.535233
799.012878	110.427856
798.964966	119.873383
798.916992	119.853661
798.869019	100.912796
798.821045	97.743195
798.773071	113.489555
798.725098	78.799225
798.677124	110.300766
798.629150	129.188217
798.581116	100.813232
798.533203	129.145706
798.485168	113.377571
798.437256	107.061203
798.389221	103.895241
798.341248	110.173798
798.293274	75.535316
798.245300	125.871475
798.197266	75.510460
798.149292	103.809792
798.101257	100.647476
798.053223	97.486191
798.005310	113.191139
797.957275	81.735703
797.909241	91.151741
797.861206	97.422035
797.813232	81.695351
797.765198	62.832233
797.717224	75.386269
797.669189	75.373863
797.621155	56.521091
797.573120	84.767677
797.525146	91.031776
797.477112	59.631691
797.429016	81.587822
797.381042	72.161964
797.333008	56.465282
797.284912	75.274643
797.236877	53.310760
797.188843	75.249855
797.140808	106.586411
797.092773	84.628212
797.044800	72.078827
796.996704	84.600342
796.948608	62.656601
796.900635	56.381653
796.852539	56.372368
796.804504	56.363083
796.756409	75.138397
796.708374	53.214268
796.660339	56.335236
796.612244	62.584396
796.564209	59.445381
796.516113	71.948349
796.468018	59.425800
796.419983	65.670326
796.371887	53.152935
796.323792	53.144176
796.275757	34.381744
796.227600	46.876472
796.179504	71.865410
796.131470	59.357300
796.083374	59.347519
796.035278	53.091660
795.987183	56.205437
795.939087	43.708134
795.891052	56.186913
795.842896	53.056671
795.794800	49.927464
795.746643	68.638947
795.698547	40.552692
795.650452	53.021702
795.602356	49.894554
795.554260	49.886330
795.506165	52.995491
795.458069	37.402412
795.409912	43.628956
795.361816	49.853447
795.313660	31.153267
795.265564	59.181450
795.217407	62.285992
795.169312	52.934364
795.121216	56.038910
795.073059	49.804150
795.024902	52.908184
794.976746	40.452530
794.928589	40.445858
794.880493	52.882015
794.832336	62.203876
794.784180	37.316170
794.736023	52.855858
794.687866	40.412518
794.639709	59.054710
794.591553	52.829708
794.543396	34.178291
794.495239	21.746235
794.447144	46.591389
794.398926	43.478123
794.350830	27.945610
794.302612	58.986557
794.254456	34.144478
794.206238	27.931784
794.158081	34.133213
794.109924	40.332596
794.061707	52.733925
794.013550	43.420773
793.965393	21.706804
793.917236	55.808289
793.869019	30.999489
793.820862	46.491558
793.772583	40.286034
793.724426	34.082558
793.676270	58.860157
793.628052	34.071308
793.579895	34.065685
793.531677	40.252804
793.483459	43.342018
793.435242	30.953474
793.387085	40.232876
793.338806	37.131908
793.290649	43.313408
793.242371	40.212955
793.194214	58.763077
793.145996	30.922831
793.097778	43.284817
793.049561	46.368931
793.001343	37.089020
792.953064	58.714588
792.904846	40.166504
792.856628	21.624548
792.808411	46.330666
792.760193	37.058411
792.711914	37.052292
792.663696	55.569260
792.615417	52.473412
792.567200	40.120098
792.518982	46.284779
792.470703	67.873131
792.422485	40.100224
792.374207	43.177723
792.325928	40.086979
792.277710	30.831043
792.229492	40.073738
792.181152	24.656687
792.132935	36.978920
792.084656	46.216015
792.036377	27.725029
791.988098	40.040646
791.939819	21.556786
791.891602	46.185482
791.843323	55.413422
791.795044	30.780148
791.746765	43.085087
791.698486	46.154964
791.650208	36.917870
791.601929	33.835789
791.553650	58.433975
791.505371	36.899570
791.457031	39.967926
791.408752	43.035271
791.360474	49.175037
791.312195	46.093975
791.263916	58.376053
791.215576	39.934910
791.167297	30.714083
791.118958	58.347111
791.070679	36.844715
791.022339	36.838623
790.974060	58.318176
790.925720	46.033054
790.877441	30.683630
790.829102	49.085690
790.780823	30.673485
790.732422	55.203144
790.684143	21.464338
790.635803	52.119061
790.587524	36.783840
790.539185	39.842571
790.490845	27.578758
790.442505	30.637997
790.394104	52.075981
790.345825	18.376719
790.297424	42.871918
790.249146	33.679504
790.200745	39.796471
790.152405	36.729126
790.104065	52.024323
790.055725	52.015717
790.007385	45.888626
789.958984	33.646091
789.910706	24.465837
789.862305	36.692684
789.813904	36.686615
789.765564	39.737255
789.717224	30.562063
789.668823	58.058311
789.620483	45.827923
789.572083	18.328136
789.523682	45.812759
789.475342	54.966213
789.427002	42.744423
789.378601	48.842686
789.330200	64.095413
789.281799	36.619892
789.233459	33.562675
789.185059	27.455828
789.136658	30.501425
789.088257	33.546013
789.039856	39.638725
788.991455	27.437653
788.943115	57.914345
788.894714	24.380951
788.846252	24.376913
788.797913	39.605927
788.749451	27.414948
788.701050	27.410410
788.652649	21.315678
788.604248	24.356741
788.555847	30.440884
788.507385	27.392260
788.458984	51.732365
788.410522	48.681221
788.362122	36.504871
788.313660	33.457256
788.265259	30.410650
788.216858	36.486736
788.168396	39.520748
788.119995	27.355988
788.071533	42.546711
788.023071	45.578209
787.974670	30.380440
787.926208	30.375406
787.877747	21.259262
787.829346	15.182672
787.780884	0.000000
787.732422	18.213169
787.684021	42.490356
787.635559	33.379745
787.587097	33.374218
787.538635	24.268135
787.490173	24.264114
787.441711	18.195070
787.393250	15.160046
787.344788	30.315067
787.296326	30.310043
787.247803	33.335522
787.199341	21.209997
787.150879	33.324471
787.102417	27.260958
787.053894	33.313427
787.005432	27.251921
786.956909	30.274893
786.908508	24.215900
786.859985	27.238371
786.811523	21.181887
786.763000	18.152893
786.714478	15.124904
786.666016	27.220312
786.617493	27.215799
786.569031	30.234762
786.520508	18.137850
786.471985	21.157316
786.423523	15.109862
786.375000	27.193241
786.326477	21.146791
786.277954	21.143286
786.229431	33.219650
786.180908	15.097338
786.132446	15.094833
786.083923	12.073864
786.035339	15.089827
785.986816	33.192112
785.938354	21.118750
785.889771	42.230492
785.841248	21.111742
785.792725	51.262871
785.744202	33.164589
785.695679	3.014462
785.647095	9.041887
785.598572	27.121161
785.550049	15.064811
785.501465	21.087236
785.452942	24.095699
785.404358	39.149014
785.355835	27.098665
785.307251	36.125557
785.258728	45.149452
785.210205	12.037856
785.161621	33.098610
785.113037	30.084652
785.064453	6.015932
785.015930	9.022400
784.967346	24.055738
784.918762	15.032341
784.870239	42.083569
784.821594	30.054701
784.773071	21.034798
784.724487	33.049194
784.675903	30.039734
784.627319	21.024323
784.578735	15.014880
784.530151	12.009910
784.481567	27.017809
784.432983	12.005921
784.384399	27.008837
784.335754	12.001934
784.287170	17.999912
784.238586	20.996410
784.190002	26.990900
784.141357	29.984909
784.092773	23.983942
784.044128	20.982464
783.995605	17.981981
783.946960	23.971992
783.898376	23.968012
783.849670	23.964029
783.801086	26.955055
783.752502	14.972543
783.703857	35.928131
783.655212	26.941622
783.606628	29.930162
783.558044	29.925190
783.509338	20.944151
783.460693	26.923721
783.412109	29.910275
783.363464	8.971591
783.314819	26.910301
783.266174	5.979073
783.217529	11.956159
783.168884	17.931257
783.120300	23.904369
783.071594	29.875496
783.022949	26.883476
782.974304	26.879007
782.925659	11.944240
782.877014	8.956691
782.828369	20.895472
782.779663	26.861139
782.731018	14.920374
782.682373	5.967157
782.633667	17.898497
782.585022	26.843281
782.536377	17.892546
782.487671	29.815948
782.439026	29.810991
782.390320	26.825430
782.341614	14.900538
782.292969	29.796122
782.244263	20.853817
782.195557	17.871727
782.146912	26.803131
782.098206	20.843412
782.049500	11.908541
782.000854	20.836479
781.952087	17.856869
781.903442	8.926950
781.854736	26.776392
781.806030	11.898640
781.757324	8.922495
781.708618	20.815691
781.659912	26.758579
781.611206	26.754126
781.562500	23.777489
781.513794	20.801842
781.465027	23.769577
781.416382	14.853514
781.367615	14.851042
781.318909	14.848570
781.270203	11.876879
781.221436	23.749805
781.172791	17.809389
781.124023	29.677376
781.075256	17.803461
781.026550	8.900249
780.977844	17.797535
780.929077	8.897286
780.880310	23.722147
780.831604	17.788649
780.782837	11.857124
780.734131	14.818938
780.685364	5.926589
780.636597	11.851203
780.587891	11.849230
780.539062	29.618143
780.490356	29.613211
780.441589	11.843312
780.392822	8.881004
780.344055	17.759052
780.295288	-2.959349
780.246521	14.794281
780.197815	11.833453
780.148987	17.747223
780.100281	17.744268
780.051453	17.741312
780.002686	17.738358
779.953918	32.514904
779.905151	1164.430786
779.856384	3661.140381
779.807556	32.498657
779.758789	14.769656
779.710022	20.674072
779.661194	17.717682
779.612427	8.857365
779.563599	-2.951963
779.514832	-8.854413
779.466003	26.558813
779.417236	26.554388
779.368408	8.849987
779.319580	20.646530
779.270813	5.898025
779.221985	14.742605
779.173218	17.688179
779.124390	17.685230
779.075562	8.841141
779.026733	17.679335
778.977966	29.460646
778.929138	20.619015
778.880310	32.395908
778.831482	20.612141
778.782593	11.776402
778.733826	23.548878
778.684937	26.488070
778.636108	5.885256
778.587341	26.479239
778.538513	14.708235
778.489624	20.588095
778.440796	17.643995
778.391968	5.880351
778.343079	14.698426
778.294250	8.817585
778.245422	8.816114
778.196594	23.505716
778.147705	8.813173
778.098816	32.309578
778.049988	26.430700
778.001099	23.490038
777.952271	20.550354
777.903381	23.482201
777.854553	29.347855
777.805664	8.802887
777.756836	8.801418
777.707886	2.933317
777.659058	14.664136
777.610168	17.594027
777.561279	26.386637
777.512451	11.725437
777.463562	5.861740
777.414673	23.443048
777.365784	0.000000
777.316895	14.647016
777.268005	29.289141
777.219116	26.355827
777.170227	29.279364
777.121277	23.419582
777.072388	26.342632
777.023560	8.779411
776.974670	3376.583252
776.925720	23.403948
776.876831	35.100060
776.827881	14.622583
776.778992	20.468199
776.730103	23.388321
776.681152	14.615260
776.632263	20.457947
776.583313	5.844152
776.534424	14.607940
776.485535	11.684401
776.436584	32.126736
776.387695	23.360996
776.338684	23.357094
776.289795	8.757447
776.240906	37.942600
776.191956	23.345392
776.143005	17.506119
776.094055	35.006390
776.045105	35.000542
775.996216	11.664899
775.947266	20.410162
775.898315	14.576252
775.849365	26.232868
775.800415	20.399933
775.751465	23.310314
775.702515	17.479815
775.653564	20.389709
775.604553	17.473972
775.555664	17.471052
775.506653	11.645422
775.457703	23.286953
775.408752	20.372677
775.359802	29.098961
775.310852	8.728230
775.261841	5.817847
775.212891	17.450623
775.163879	17.447706
775.114929	2.907465
775.065918	31.976767
775.016968	11.625972
774.968018	11.624028
774.918945	37.771774
774.869995	14.525176
774.820984	23.236397
774.772034	14.520320
774.723022	26.132204
774.674011	11.612371
774.625061	29.026073
774.576050	8.706366
774.527039	14.508183
774.478027	8.703454
774.429016	17.403996
774.380005	23.201447
774.330994	14.498479
774.281982	20.294476
774.232971	8.696177
774.183960	20.287685
774.134949	11.591024
774.085876	5.794542
774.036926	17.380720
773.987915	5.792604
773.938904	11.583269
773.889832	11.581331
773.840820	11.579393
773.791809	23.154911
773.742737	8.681639
773.693665	43.400928
773.644653	8.678733
773.595581	17.354563
773.546570	17.351658
773.497559	20.240211
773.448486	14.454875
773.399475	26.014420
773.350403	11.560029
773.301331	20.226664
773.252319	28.890398
773.203247	25.997005
773.154236	37.544941
773.105103	28.875891
773.056030	25.983950
773.007019	17.319733
772.957947	25.975250
772.908875	-2.885656
772.859802	20.196207
772.810730	17.308136
772.761658	11.536825
772.712585	23.069786
772.663513	8.649721
772.614441	14.413787
772.565369	14.411373
772.516296	20.172543
772.467163	20.169163
772.418091	8.642479
772.368958	2.880344
772.319946	20.159029
772.270813	11.517516
772.221741	14.394483
772.172668	17.270485
772.123535	8.633796
772.074402	2.877450
772.025330	11.507871
771.976257	2.876486
771.927124	14.380018
771.877991	-2.875522
771.828918	31.625439
771.779785	25.871021
771.730652	11.496305
771.681580	14.367973
771.632446	14.365564
771.583313	0.000000
771.534180	11.488600
771.485046	14.358342
771.435974	22.969498
771.386780	11.482823
771.337708	20.091572
771.288513	11.478973
771.239380	22.954098
771.190247	22.950249
771.141113	8.604900
771.091980	28.678192
771.042908	17.204031
770.993713	8.600573
770.944519	11.465508
770.895447	14.329481
770.846313	31.519571
770.797119	31.514284
770.747925	2.864455
770.698792	17.183844
770.649658	25.771442
770.600525	22.904106
770.551331	17.175200
770.502197	14.310265
770.453003	17.169437
770.403870	14.305464
770.354675	14.303063
770.305481	11.440532
770.256287	8.578959
770.207153	11.436692
770.157959	8.576080
770.108765	2.858214
770.059631	11.430937
770.010437	20.000782
769.961243	8.570325
769.912048	19.994070
769.862854	17.134897
769.813660	34.264042
769.764465	17.129147
769.715271	19.980650
769.666077	8.561698
769.616882	11.413681
769.567688	22.823530
769.518494	5.704925
769.469238	17.111900
769.420044	25.663542
769.370850	17.106155
769.321594	22.804379
769.272461	11.400274
769.223206	-8.548770
769.173950	2.849112
769.124817	17.091799
769.075562	19.937084
769.026306	5.695353
768.977112	0.000000
768.927856	8.540160
768.878662	17.077452
768.829407	8.537292
768.780212	14.226429
768.730957	19.913656
768.681763	8.532990
768.632446	-2.843852
768.583252	22.746996
768.533997	2.842897
768.484741	17.054516
768.435486	22.735533
768.386230	34.097569
768.337036	5.681973
768.287781	11.362037
768.238525	2.840032
768.189209	25.555992
768.140015	17.034466
768.090759	0.000000
768.041443	5.676247
767.992188	25.538816
767.942932	5.674339
767.893677	5.673385
767.844421	28.362156
767.795105	2.835739
767.745850	19.846836
767.696594	17.008713
767.647278	22.674473
767.598022	25.504492
767.548767	14.166780
767.499451	14.164398
767.450134	0.000000
767.400879	25.487343
767.351562	16.988705
767.302307	25.478773
767.252991	11.321995
767.203735	11.320090
767.154419	5.659093
767.105103	14.145354
767.055786	11.314380
767.006470	2.828119
766.957214	19.793505
766.907837	16.963007
766.858582	19.786846
766.809265	16.957300
766.759949	11.302965
766.710632	5.650532
766.661316	22.598324
766.612000	31.067467
766.562683	25.414560
766.513367	19.763554
766.464050	14.114449
766.414673	19.756903
766.365356	14.109698
766.316040	31.036114
766.266724	11.283960
766.217346	16.923092
766.168030	22.560324
766.118713	0.000000
766.069336	14.095456
766.020020	8.455850
765.970703	11.272569
765.921326	8.453003
765.871948	14.085967
765.822632	14.083595
765.773254	36.611183
765.723938	28.157707
765.674561	22.522373
765.625244	-2.814823
765.575867	0.000000
765.526489	14.069373
765.477112	19.693806
765.427795	16.877562
765.378418	16.874720
765.329041	22.495836
765.279663	11.246024
765.230286	11.244129
765.180908	30.916147
765.131531	14.050427
765.082153	14.048060
765.032715	14.045694
764.983337	19.660658
764.934021	14.040962
764.884644	5.615438
764.835205	19.650723
764.785828	19.647411
764.736450	2.806300
764.687073	28.058273
764.637634	8.416063
764.588257	16.829290
764.538818	5.608818
764.489441	14.019682
764.440063	25.231174
764.390625	16.817947
764.341187	8.407557
764.291809	42.030697
764.242432	14.007871
764.192932	33.613224
764.143555	25.205667
764.094116	14.000788
764.044739	13.998427
763.995300	30.791348
763.945862	13.993707
763.896484	25.184425
763.847046	2.797798
763.797607	19.581282
763.748169	8.390563
763.698730	16.778296
763.649292	16.775465
763.599854	11.181758
763.550415	27.949678
763.500977	16.766979
763.451538	11.176101
763.402100	19.554876
763.352661	13.965413
763.303162	5.585223
763.253723	11.168561
763.204285	30.708363
763.154846	39.076775
763.105408	33.488728
763.055908	36.273335
763.006470	11.159142
762.957031	27.893148
762.907532	22.310755
762.858032	44.613979
762.808594	19.515322
762.759094	11.149730
762.709656	22.295696
762.660156	36.224392
762.610718	25.074192
762.561218	19.498857
762.511780	13.925405
762.462280	16.707664
762.412781	5.568282
762.363342	-2.783671
762.313843	8.349602
762.264343	27.827309
762.214783	13.911305
762.165344	25.036121
762.115845	25.031893
762.066345	5.561704
762.016846	19.462675
761.967346	19.459389
761.917847	13.897216
761.868286	13.894869
761.818848	16.671026
761.769287	8.334105
761.719788	24.998095
761.670288	13.885484
761.620789	22.213022
761.571228	2.776159
761.521729	13.878448
761.472229	13.876103
761.422668	19.423264
761.373169	16.645699
761.323608	16.642885
761.274109	5.546691
761.224609	13.864385
761.175049	11.089634
761.125488	8.315820
761.075989	2.771472
761.026489	0.000000
760.976929	13.852674
760.927307	8.310200
760.877808	5.539196
760.828308	2.769130
760.778687	13.843310
760.729187	2.768194
760.679626	19.374083
760.630066	22.138065
760.580566	13.833952
760.530945	5.532645
760.481384	35.956112
760.431824	19.357710
760.382263	19.354437
760.332703	19.351164
760.283142	13.819923
760.233521	22.108137
760.184021	5.526100
760.134460	13.812913
760.084839	5.524230
760.035278	13.808241
759.985657	22.089447
759.936096	11.042855
759.886536	19.321728
759.836975	8.279340
759.787354	11.037252
759.737732	24.829617
759.688232	8.275139
759.638611	19.305389
759.588989	13.787231
759.539368	11.027919
759.489807	2.756513
759.440186	8.268140
759.390564	13.777902
759.341003	30.306253
759.291443	13.773238
759.241760	13.770907
759.192200	13.768577
759.142578	16.519495
759.092957	13.763916
759.043335	11.009269
758.993713	27.518513
758.944092	27.513853
758.894470	33.011036
758.844849	13.752270
758.795227	13.749941
758.745667	13.747613
758.695984	32.988686
758.646362	13.742957
758.596741	19.236883
758.547058	13.738303
758.497437	19.230368
758.447815	13.733650
758.398193	10.985060
758.348511	19.220598
758.298889	27.453346
758.249268	21.958958
758.199646	16.466429
758.149963	13.719699
758.100281	10.973900
758.050659	13.715051
758.000977	10.970182
757.951355	16.452484
757.901672	27.416162
757.851990	19.188063
757.802368	13.703436
757.752686	13.701114
757.703003	10.959034
757.653320	8.217882
757.603699	5.477660
757.554016	16.430195
757.504333	16.427410
757.454651	16.424625
757.404968	19.158815
757.355286	10.946038
757.305603	21.888365
757.255920	19.149073
757.206238	5.470236
757.156616	13.673272
757.106873	13.670954
757.057190	2.733727
757.007446	19.132845
756.957764	13.664001
756.908081	30.055704
756.858398	10.927494
756.808716	10.925640
756.758972	2.730947
756.709290	8.191451
756.659607	13.650104
756.609924	2.729558
756.560120	5.458189
756.510437	21.829054
756.460693	10.912675
756.411072	19.093943
756.361328	10.908973
756.311584	16.360683
756.261902	10.905272
756.212097	21.806843
756.162415	10.901571
756.112671	5.449861
756.062927	10.897872
756.013184	19.068039
755.963501	10.894174
755.913757	5.446162
755.864014	8.167857
755.814270	16.332941
755.764587	21.773558
755.714844	10.884932
755.665100	24.486938
755.615356	13.601545
755.565552	16.319084
755.515808	13.596928
755.466064	8.156772
755.416321	21.747698
755.366577	2.718001
755.316833	5.435078
755.267029	21.736622
755.217285	16.299698
755.167542	2.716155
755.117737	16.294163
755.067993	24.437092
755.018188	13.573856
754.968445	38.000343
754.918701	5.427698
754.868896	21.707106
754.819092	5.425855
754.769348	21.699732
754.719543	13.560028
754.669739	21.692360
754.619995	32.533012
754.570190	16.263742
754.520386	21.681305
754.470642	18.967918
754.420837	16.255453
754.371033	24.379036
754.321228	27.083214
754.271484	10.831445
754.221619	24.366608
754.171875	24.362467
754.122070	5.412961
754.072205	5.412041
754.022400	29.761168
753.972595	2.705101
753.922852	24.341768
753.872986	16.225086
753.823181	21.629770
753.773376	2.703262
753.723572	27.028021
753.673706	2.702343
753.623901	18.913181
753.574097	0.000000
753.524292	32.411572
753.474426	18.903534
753.424561	16.200274
753.374756	16.197517
753.324951	8.097382
753.275085	24.288013
753.225281	8.094627
753.175415	26.977501
753.125610	18.881039
753.075745	26.968325
753.025879	2.696374
752.976074	16.175489
752.926208	18.868193
752.876343	13.474988
752.826477	10.778156
752.776672	2.694081
752.726807	10.774488
752.676941	8.079491
752.627075	21.541643
752.577209	13.461235
752.527344	24.226099
752.477539	5.382661
752.427673	13.454363
752.377808	24.213732
752.327881	13.449783
752.278015	13.447494
752.228149	18.823286
752.178284	13.442915
752.128357	13.440626
752.078491	18.813673
752.028625	16.123260
751.978760	26.867525
751.928833	29.549244
751.878967	16.115025
751.829102	10.741520
751.779175	16.109537
751.729309	26.844654
751.679382	26.840082
751.629456	32.202614
751.579590	5.366188
751.529663	13.413185
751.479797	21.457439
751.429871	21.453785
751.379944	21.450130
751.330078	8.042428
751.280212	24.123175
751.230225	13.399480
751.180298	24.114954
751.130371	13.394914
751.080505	16.071157
751.030579	8.034209
750.980652	13.388067
750.930725	24.094414
750.880859	13.383504
750.830872	10.704978
750.780945	13.378942
750.731018	13.376661
750.681091	24.073887
750.631165	24.069782
750.581177	18.717751
750.531311	16.041050
750.481384	2.673053
750.431396	13.362985
750.381409	13.360706
750.331482	8.015057
750.281616	16.027380
750.231628	21.366196
750.181641	8.010957
750.131714	18.689045
750.081787	32.032898
750.031799	-5.337906
